pos,corr_resp,trials_3.thisRepN,trials_3.thisTrialN,trials_3.thisN,trials_3.thisIndex,trials.thisRepN,trials.thisTrialN,trials.thisN,trials.thisIndex,trials_2.thisRepN,trials_2.thisTrialN,trials_2.thisN,trials_2.thisIndex,Fixation.started,line1.started,line2.started,line3.started,line4.started,Fixation.stopped,probe.started,key_resp.started,key_resp.keys,key_resp.corr,key_resp.rt,key_resp.duration,participant,session,date,expName,psychopyVersion,frameRate,
-50,x,0,0,0,0,0,0,0,0,,,,,12.111253083000065,13.09954258300013,13.09954258300013,13.09954258300013,13.09954258300013,13.110277125000266,14.093608790999951,14.093608790999951,x,1,0.40855658399959793,None,1,001,2023-10-14_20h03.11.899,Sequence_Learning,2023.1.3,None,
150,v,0,0,0,0,0,1,1,1,,,,,14.528674333000254,15.521116625000104,15.521116625000104,15.521116625000104,15.521116625000104,15.53006141600008,16.518414874999962,16.518414874999962,v,1,0.3632911250001598,None,1,001,2023-10-14_20h03.11.899,Sequence_Learning,2023.1.3,None,
50,c,0,0,0,0,0,2,2,2,,,,,16.893623165999998,17.887887500000033,17.887887500000033,17.887887500000033,17.887887500000033,17.887887500000033,18.884937457999968,18.884937457999968,c,1,0.29470820899996397,None,1,001,2023-10-14_20h03.11.899,Sequence_Learning,2023.1.3,None,
-150,z,0,0,0,0,0,3,3,3,,,,,19.19378266600006,20.193960375000188,20.193960375000188,20.193960375000188,20.193960375000188,20.211115583000264,21.177200999999968,21.177200999999968,z,1,0.30001695799955996,None,1,001,2023-10-14_20h03.11.899,Sequence_Learning,2023.1.3,None,
-50,x,0,0,0,0,1,0,4,0,,,,,21.48531758299987,22.472438540999974,22.472438540999974,22.472438540999974,22.472438540999974,22.481441750000158,23.4772575410002,23.4772575410002,x,1,0.25220183300007193,None,1,001,2023-10-14_20h03.11.899,Sequence_Learning,2023.1.3,None,
150,v,0,0,0,0,1,1,5,1,,,,,23.74392325000008,24.738275416000306,24.738275416000306,24.738275416000306,24.738275416000306,24.738275416000306,25.735362458000054,25.735362458000054,v,1,0.22916016699991815,None,1,001,2023-10-14_20h03.11.899,Sequence_Learning,2023.1.3,None,
50,c,0,0,0,0,1,2,6,2,,,,,25.977409915999942,26.971071500000107,26.971071500000107,26.971071500000107,26.971071500000107,26.971071500000107,27.96898474999989,27.96898474999989,c,1,0.25787670799991247,None,1,001,2023-10-14_20h03.11.899,Sequence_Learning,2023.1.3,None,
-150,z,0,0,0,0,1,3,7,3,,,,,28.23531200000025,29.22236033299987,29.22236033299987,29.22236033299987,29.22236033299987,29.231072333000157,30.21930058299995,30.21930058299995,z,1,0.25956691699957446,None,1,001,2023-10-14_20h03.11.899,Sequence_Learning,2023.1.3,None,
-50,x,0,0,0,0,2,0,8,0,,,,,30.49366925000004,31.488645333000022,31.488645333000022,31.488645333000022,31.488645333000022,31.488645333000022,32.48555741600012,32.48555741600012,x,1,0.2382756669999253,None,1,001,2023-10-14_20h03.11.899,Sequence_Learning,2023.1.3,None,
150,v,0,0,0,0,2,1,9,1,,,,,32.73539495800014,33.72294266600011,33.72294266600011,33.72294266600011,33.72294266600011,33.73242049999999,34.719070999999985,34.719070999999985,v,1,0.2724314580000282,None,1,001,2023-10-14_20h03.11.899,Sequence_Learning,2023.1.3,None,
50,c,0,0,0,0,2,2,10,2,,,,,35.00276625000015,35.98914591599987,35.98914591599987,35.98914591599987,35.98914591599987,35.99871608300009,36.99437395799987,36.99437395799987,c,1,0.20607891699955871,None,1,001,2023-10-14_20h03.11.899,Sequence_Learning,2023.1.3,None,
-150,z,0,0,0,0,2,3,11,3,,,,,37.21122041600029,38.20500941599994,38.20500941599994,38.20500941599994,38.20500941599994,38.20500941599994,39.194488166000156,39.194488166000156,z,1,0.302265375999923,None,1,001,2023-10-14_20h03.11.899,Sequence_Learning,2023.1.3,None,
-50,x,0,0,0,0,3,0,12,0,,,,,39.51148737499989,40.50564058300006,40.50564058300006,40.50564058300006,40.50564058300006,40.50564058300006,41.50259433300016,41.50259433300016,x,1,0.29211958399992,None,1,001,2023-10-14_20h03.11.899,Sequence_Learning,2023.1.3,None,
150,v,0,0,0,0,3,1,13,1,,,,,41.80285558300011,42.78949654100006,42.78949654100006,42.78949654100006,42.78949654100006,42.79840537500013,43.79471162500022,43.79471162500022,v,1,0.35718520899990835,None,1,001,2023-10-14_20h03.11.899,Sequence_Learning,2023.1.3,None,
50,c,0,0,0,0,3,2,14,2,,,,,44.16848608300006,45.15631129100029,45.15631129100029,45.15631129100029,45.15631129100029,45.165855457999896,46.16146029099991,46.16146029099991,c,1,0.2960471670003244,None,1,001,2023-10-14_20h03.11.899,Sequence_Learning,2023.1.3,None,
-150,z,0,0,0,0,3,3,15,3,,,,,46.46869125000012,47.456522833000236,47.456522833000236,47.456522833000236,47.456522833000236,47.46548845799998,48.45330883299994,48.45330883299994,z,1,0.31833870799982833,None,1,001,2023-10-14_20h03.11.899,Sequence_Learning,2023.1.3,None,
-50,x,0,0,0,0,4,0,16,0,,,,,48.78667612500021,49.773105374999886,49.773105374999886,49.773105374999886,49.773105374999886,49.781965958,50.77828283300005,50.77828283300005,x,1,0.2957510840001305,None,1,001,2023-10-14_20h03.11.899,Sequence_Learning,2023.1.3,None,
150,v,0,0,0,0,4,1,17,1,,,,,51.08642741599988,52.073887041000035,52.073887041000035,52.073887041000035,52.073887041000035,52.08296687500024,53.078412583000045,53.078412583000045,v,1,0.2737102920000325,None,1,001,2023-10-14_20h03.11.899,Sequence_Learning,2023.1.3,None,
50,c,0,0,0,0,4,2,18,2,,,,,53.360894416000065,54.35510433299987,54.35510433299987,54.35510433299987,54.35510433299987,54.35510433299987,55.35344291599995,55.35344291599995,c,1,0.31950129200004085,None,1,001,2023-10-14_20h03.11.899,Sequence_Learning,2023.1.3,None,
-150,z,0,0,0,0,4,3,19,3,,,,,55.686593666000135,56.67952762499999,56.67952762499999,56.67952762499999,56.67952762499999,56.6892908750001,57.67866200000026,57.67866200000026,z,1,0.3044689579996884,None,1,001,2023-10-14_20h03.11.899,Sequence_Learning,2023.1.3,None,
-50,x,0,0,0,0,5,0,20,0,,,,,57.99466770800018,58.98901062499999,58.98901062499999,58.98901062499999,58.98901062499999,58.98901062499999,59.986629625000205,59.986629625000205,x,1,0.2381508749999739,None,1,001,2023-10-14_20h03.11.899,Sequence_Learning,2023.1.3,None,
150,v,0,0,0,0,5,1,21,1,,,,,60.236682166000264,61.22328895800001,61.22328895800001,61.22328895800001,61.22328895800001,61.232296958000006,62.2287624999999,62.2287624999999,v,1,0.2701812499999505,None,1,001,2023-10-14_20h03.11.899,Sequence_Learning,2023.1.3,None,
50,c,0,0,0,0,5,2,22,2,,,,,62.51222516600001,63.505885500000204,63.505885500000204,63.505885500000204,63.505885500000204,63.505885500000204,64.49562595799989,64.49562595799989,c,1,0.21719991700001628,None,1,001,2023-10-14_20h03.11.899,Sequence_Learning,2023.1.3,None,
-150,z,0,0,0,0,5,3,23,3,,,,,64.72881870800029,66.07898945800025,66.07898945800025,66.07898945800025,66.07898945800025,66.07898945800025,66.72030345800022,66.72030345800022,z,1,0.25596720799967443,None,1,001,2023-10-14_20h03.11.899,Sequence_Learning,2023.1.3,None,
-50,x,0,0,0,0,6,0,24,0,,,,,66.98713208300023,67.97402808300012,67.97402808300012,67.97402808300012,67.97402808300012,67.983419916,68.97907508300023,68.97907508300023,x,1,0.2336443760000293,None,1,001,2023-10-14_20h03.11.899,Sequence_Learning,2023.1.3,None,
150,v,0,0,0,0,6,1,25,1,,,,,69.22901195800023,70.22326675000022,70.22326675000022,70.22326675000022,70.22326675000022,70.22326675000022,71.22048674999996,71.22048674999996,v,1,0.2565530840001884,None,1,001,2023-10-14_20h03.11.899,Sequence_Learning,2023.1.3,None,
50,c,0,0,0,0,6,2,26,2,,,,,71.48685312499993,72.4740527910003,72.4740527910003,72.4740527910003,72.4740527910003,72.48350699999992,73.47921983300012,73.47921983300012,c,1,0.2378699589999087,None,1,001,2023-10-14_20h03.11.899,Sequence_Learning,2023.1.3,None,
-150,z,0,0,0,0,6,3,27,3,,,,,73.7287060409999,74.72294729100031,74.72294729100031,74.72294729100031,74.72294729100031,74.72294729100031,75.7206060829999,75.7206060829999,z,1,0.2919696250000925,None,1,001,2023-10-14_20h03.11.899,Sequence_Learning,2023.1.3,None,
-50,x,0,0,0,0,7,0,28,0,,,,,76.02074062500014,77.01296783299995,77.01296783299995,77.01296783299995,77.01296783299995,77.02262816600023,78.01264124999989,78.01264124999989,x,1,0.2422142509999503,None,1,001,2023-10-14_20h03.11.899,Sequence_Learning,2023.1.3,None,
150,v,0,0,0,0,7,1,29,1,,,,,78.27048887499996,79.26263941600018,79.26263941600018,79.26263941600018,79.26263941600018,79.26263941600018,80.26269641599993,80.26269641599993,v,1,0.22597804199995153,None,1,001,2023-10-14_20h03.11.899,Sequence_Learning,2023.1.3,None,
50,c,0,0,0,0,7,2,30,2,,,,,80.50392837500021,81.49137070799998,81.49137070799998,81.49137070799998,81.49137070799998,81.50082095800008,82.48762583300004,82.48762583300004,c,1,0.24214449999999488,None,1,001,2023-10-14_20h03.11.899,Sequence_Learning,2023.1.3,None,
-150,z,0,0,0,0,7,3,31,3,,,,,82.74615795799991,83.74000537500024,83.74000537500024,83.74000537500024,83.74000537500024,83.74000537500024,84.73778783299986,84.73778783299986,z,1,0.24553983299983884,None,1,001,2023-10-14_20h03.11.899,Sequence_Learning,2023.1.3,None,
-50,x,0,0,0,0,8,0,32,0,,,,,84.99634708300027,85.99659724999992,85.99659724999992,85.99659724999992,85.99659724999992,86.01366995800026,86.97963962499989,86.97963962499989,x,1,0.052682624999761174,None,1,001,2023-10-14_20h03.11.899,Sequence_Learning,2023.1.3,None,
150,v,0,0,0,0,8,1,33,1,,,,,87.04657504099987,88.04097004100004,88.04097004100004,88.04097004100004,88.04097004100004,88.04097004100004,89.03842520800026,89.03842520800026,v,1,0.4416693339999256,None,1,001,2023-10-14_20h03.11.899,Sequence_Learning,2023.1.3,None,
50,c,0,0,0,0,8,2,34,2,,,,,89.49951129100009,90.49117683300028,90.49117683300028,90.49117683300028,90.49117683300028,90.5000930000001,91.48806775000003,91.48806775000003,c,1,0.2634511669998574,None,1,001,2023-10-14_20h03.11.899,Sequence_Learning,2023.1.3,None,
-150,z,0,0,0,0,8,3,35,3,,,,,91.76332166600014,92.75683720799998,92.75683720799998,92.75683720799998,92.75683720799998,92.75683720799998,93.75458062500002,93.75458062500002,z,1,0.20161304200019003,None,1,001,2023-10-14_20h03.11.899,Sequence_Learning,2023.1.3,None,
-50,x,0,0,0,0,9,0,36,0,,,,,93.9712468749999,94.95857516600017,94.95857516600017,94.95857516600017,94.95857516600017,94.96764974999996,95.95514150000008,95.95514150000008,x,1,0.26658104199987065,None,1,001,2023-10-14_20h03.11.899,Sequence_Learning,2023.1.3,None,
150,v,0,0,0,0,9,1,37,1,,,,,96.23796191600013,97.2254925000002,97.2254925000002,97.2254925000002,97.2254925000002,97.23490145799997,98.23009016600008,98.23009016600008,v,1,0.21054737499980547,None,1,001,2023-10-14_20h03.11.899,Sequence_Learning,2023.1.3,None,
50,c,0,0,0,0,9,2,38,2,,,,,98.45450341600008,99.44189966600015,99.44189966600015,99.44189966600015,99.44189966600015,99.45095479100019,100.44683250000026,100.44683250000026,c,1,0.23474350100013908,None,1,001,2023-10-14_20h03.11.899,Sequence_Learning,2023.1.3,None,
-150,z,0,0,0,0,9,3,39,3,,,,,100.69683133299986,101.6970784160003,101.6970784160003,101.6970784160003,101.6970784160003,101.71416816600004,102.68024737499991,102.68024737499991,z,1,0.27275491699992926,None,1,001,2023-10-14_20h03.11.899,Sequence_Learning,2023.1.3,None,
-50,x,0,0,0,0,10,0,40,0,,,,,102.96375824999996,103.9499236659999,103.9499236659999,103.9499236659999,103.9499236659999,103.96433366600013,104.95526766600005,104.95526766600005,x,1,0.3123589169999832,None,1,001,2023-10-14_20h03.11.899,Sequence_Learning,2023.1.3,None,
150,v,0,0,0,0,10,1,41,1,,,,,105.27988975000017,106.27480462499989,106.27480462499989,106.27480462499989,106.27480462499989,106.27480462499989,107.27167954100014,107.27167954100014,v,1,0.26649762500028373,None,1,001,2023-10-14_20h03.11.899,Sequence_Learning,2023.1.3,None,
50,c,0,0,0,0,10,2,42,2,,,,,107.55293429099993,108.54205000000002,108.54205000000002,108.54205000000002,108.54205000000002,108.55112591600027,109.53864700000031,109.53864700000031,c,1,0.23471441699985007,None,1,001,2023-10-14_20h03.11.899,Sequence_Learning,2023.1.3,None,
-150,z,0,0,0,0,10,3,43,3,,,,,109.7886033750001,110.77599179100025,110.77599179100025,110.77599179100025,110.77599179100025,110.78538733300002,111.78059487500013,111.78059487500013,z,1,0.1953032510000412,None,1,001,2023-10-14_20h03.11.899,Sequence_Learning,2023.1.3,None,
-50,x,0,0,0,0,11,0,44,0,,,,,111.98861066600011,112.97538170799999,112.97538170799999,112.97538170799999,112.97538170799999,112.98448391600004,113.97236712499989,113.97236712499989,x,1,0.3218093749997024,None,1,001,2023-10-14_20h03.11.899,Sequence_Learning,2023.1.3,None,
150,v,0,0,0,0,11,1,45,1,,,,,114.30544141600012,115.2927441249999,115.2927441249999,115.2927441249999,115.2927441249999,115.30184087499993,116.28929029100027,116.28929029100027,v,1,0.22988233400019453,None,1,001,2023-10-14_20h03.11.899,Sequence_Learning,2023.1.3,None,
50,c,0,0,0,0,11,2,46,2,,,,,116.53080216600029,117.53091791599991,117.53091791599991,117.53091791599991,117.53091791599991,117.54812362500024,118.52214666600003,118.52214666600003,c,1,0.19805237499986106,None,1,001,2023-10-14_20h03.11.899,Sequence_Learning,2023.1.3,None,
-150,z,0,0,0,0,11,3,47,3,,,,,118.73056933299995,119.72430995800005,119.72430995800005,119.72430995800005,119.72430995800005,119.72430995800005,120.72241287499992,120.72241287499992,z,1,0.27320495799995115,None,1,001,2023-10-14_20h03.11.899,Sequence_Learning,2023.1.3,None,
-50,x,0,0,0,0,12,0,48,0,,,,,121.00537879100011,121.99322366600018,121.99322366600018,121.99322366600018,121.99322366600018,122.0023351660002,122.99771212499991,122.99771212499991,x,1,0.2258057919998464,None,1,001,2023-10-14_20h03.11.899,Sequence_Learning,2023.1.3,None,
150,v,0,0,0,0,12,1,49,1,,,,,123.23849000000018,124.22593991600024,124.22593991600024,124.22593991600024,124.22593991600024,124.23483783300026,125.22249633299998,125.22249633299998,v,1,0.26497970799982795,None,1,001,2023-10-14_20h03.11.899,Sequence_Learning,2023.1.3,None,
50,c,0,0,0,0,12,2,50,2,,,,,125.49793379099992,126.49198845799992,126.49198845799992,126.49198845799992,126.49198845799992,126.49198845799992,127.48922179100009,127.48922179100009,c,1,0.18030904199986253,None,1,001,2023-10-14_20h03.11.899,Sequence_Learning,2023.1.3,None,
-150,z,0,0,0,0,12,3,51,3,,,,,127.6803315000002,128.6754540410002,128.6754540410002,128.6754540410002,128.6754540410002,128.6754540410002,129.67312812499995,129.67312812499995,z,1,0.25902733300017644,None,1,001,2023-10-14_20h03.11.899,Sequence_Learning,2023.1.3,None,
-50,x,0,0,0,0,13,0,52,0,,,,,129.94805700000006,130.94209420800007,130.94209420800007,130.94209420800007,130.94209420800007,130.94209420800007,131.93947845799994,131.93947845799994,x,1,0.3166201670001101,None,1,001,2023-10-14_20h03.11.899,Sequence_Learning,2023.1.3,None,
150,v,0,0,0,0,13,1,53,1,,,,,132.27214666600003,133.2600402080002,133.2600402080002,133.2600402080002,133.2600402080002,133.26906820800014,134.26468837499988,134.26468837499988,v,1,0.37884783399977096,None,1,001,2023-10-14_20h03.11.899,Sequence_Learning,2023.1.3,None,
50,c,0,0,0,0,13,2,54,2,,,,,134.65566366600024,135.64298120800004,135.64298120800004,135.64298120800004,135.64298120800004,135.6517868750002,136.639579958,136.639579958,c,1,0.12689562500008833,None,1,001,2023-10-14_20h03.11.899,Sequence_Learning,2023.1.3,None,
-150,z,0,0,0,0,13,3,55,3,,,,,136.78076979100024,137.7760736250002,137.7760736250002,137.7760736250002,137.7760736250002,137.7760736250002,138.77310045800004,138.77310045800004,z,1,0.1847885829997722,None,1,001,2023-10-14_20h03.11.899,Sequence_Learning,2023.1.3,None,
-50,x,0,0,0,0,14,0,56,0,,,,,138.97341825000012,139.9597187080003,139.9597187080003,139.9597187080003,139.9597187080003,139.96865849999995,140.9649979579999,140.9649979579999,x,1,0.5340719589999026,None,1,001,2023-10-14_20h03.11.899,Sequence_Learning,2023.1.3,None,
150,v,0,0,0,0,14,1,57,1,,,,,141.51498654099987,142.50895100000025,142.50895100000025,142.50895100000025,142.50895100000025,142.50895100000025,143.50639154100008,143.50639154100008,v,1,0.2893114170001354,None,1,001,2023-10-14_20h03.11.899,Sequence_Learning,2023.1.3,None,
50,c,0,0,0,0,14,2,58,2,,,,,143.80628241600016,144.7926433749999,144.7926433749999,144.7926433749999,144.7926433749999,144.8014497500003,145.7899015410003,145.7899015410003,c,1,0.2303230419997817,None,1,001,2023-10-14_20h03.11.899,Sequence_Learning,2023.1.3,None,
-150,z,0,0,0,0,14,3,59,3,,,,,146.03187395800023,147.0251157910002,147.0251157910002,147.0251157910002,147.0251157910002,147.0251157910002,148.02316599999995,148.02316599999995,z,1,0.3093509579998681,None,1,001,2023-10-14_20h03.11.899,Sequence_Learning,2023.1.3,None,
-50,x,0,0,0,0,15,0,60,0,,,,,148.34855137500017,149.34267579100015,149.34267579100015,149.34267579100015,149.34267579100015,149.34267579100015,150.34024841600012,150.34024841600012,x,1,0.24589675100014574,None,1,001,2023-10-14_20h03.11.899,Sequence_Learning,2023.1.3,None,
150,v,0,0,0,0,15,1,61,1,,,,,150.59867079100013,151.5926359160003,151.5926359160003,151.5926359160003,151.5926359160003,151.5926359160003,152.5820146660003,152.5820146660003,v,1,0.24225599999999758,None,1,001,2023-10-14_20h03.11.899,Sequence_Learning,2023.1.3,None,
50,c,0,0,0,0,15,2,62,2,,,,,152.8399858749999,153.8331696250002,153.8331696250002,153.8331696250002,153.8331696250002,153.8429325410002,154.832091666,154.832091666,c,1,0.19959945900018283,None,1,001,2023-10-14_20h03.11.899,Sequence_Learning,2023.1.3,None,
-150,z,0,0,0,0,15,3,63,3,,,,,155.04001404100018,156.02708662500027,156.02708662500027,156.02708662500027,156.02708662500027,156.036040125,157.03220512500002,157.03220512500002,z,1,0.23840133400017294,None,1,001,2023-10-14_20h03.11.899,Sequence_Learning,2023.1.3,None,
-50,x,0,0,0,0,16,0,64,0,,,,,157.28162475,158.2765235410002,158.2765235410002,158.2765235410002,158.2765235410002,158.2765235410002,159.27400183300006,159.27400183300006,x,1,0.18314479199989364,None,1,001,2023-10-14_20h03.11.899,Sequence_Learning,2023.1.3,None,
150,v,0,0,0,0,16,1,65,1,,,,,159.47151662500028,160.46117029100014,160.46117029100014,160.46117029100014,160.46117029100014,160.4708692500003,161.45699941600014,161.45699941600014,v,1,0.32585062599991943,None,1,001,2023-10-14_20h03.11.899,Sequence_Learning,2023.1.3,None,
50,c,0,0,0,0,16,2,66,2,,,,,161.79917004100025,162.79344866600013,162.79344866600013,162.79344866600013,162.79344866600013,162.79344866600013,163.7902737909999,163.7902737909999,c,1,0.3084411250001722,None,1,001,2023-10-14_20h03.11.899,Sequence_Learning,2023.1.3,None,
-150,z,0,0,0,0,16,3,67,3,,,,,164.10645220800006,165.09456825000007,165.09456825000007,165.09456825000007,165.09456825000007,165.1040884160002,166.0907822080003,166.0907822080003,z,1,0.3136246670001128,None,1,001,2023-10-14_20h03.11.899,Sequence_Learning,2023.1.3,None,
-50,x,0,0,0,0,17,0,68,0,,,,,166.41587212500008,167.410547125,167.410547125,167.410547125,167.410547125,167.410547125,168.40731883299986,168.40731883299986,x,1,0.29517474999966,None,1,001,2023-10-14_20h03.11.899,Sequence_Learning,2023.1.3,None,
150,v,0,0,0,0,17,1,69,1,,,,,168.71594249999998,169.71063837500014,169.71063837500014,169.71063837500014,169.71063837500014,169.71063837500014,170.6993050000001,170.6993050000001,v,1,0.21297658299954492,None,1,001,2023-10-14_20h03.11.899,Sequence_Learning,2023.1.3,None,
50,c,0,0,0,0,17,2,70,2,,,,,170.92467612500013,171.91102583300017,171.91102583300017,171.91102583300017,171.91102583300017,171.9205957500003,172.91610329100013,172.91610329100013,c,1,0.2872850010003276,None,1,001,2023-10-14_20h03.11.899,Sequence_Learning,2023.1.3,None,
-150,z,0,0,0,0,17,3,71,3,,,,,173.21608199999991,174.202057041,174.202057041,174.202057041,174.202057041,174.21675562500013,175.19961866599988,175.19961866599988,z,1,0.25787504199979594,None,1,001,2023-10-14_20h03.11.899,Sequence_Learning,2023.1.3,None,
-50,x,0,0,0,0,18,0,72,0,,,,,175.47431766599993,176.46161129100028,176.46161129100028,176.46161129100028,176.46161129100028,176.47066220800025,177.45795187500016,177.45795187500016,x,1,0.3336680420002267,None,1,001,2023-10-14_20h03.11.899,Sequence_Learning,2023.1.3,None,
150,v,0,0,0,0,18,1,73,1,,,,,177.8073372910003,178.79508358300018,178.79508358300018,178.79508358300018,178.79508358300018,178.8041037500002,179.7911706660002,179.7911706660002,v,1,0.22729708299993945,None,1,001,2023-10-14_20h03.11.899,Sequence_Learning,2023.1.3,None,
50,c,0,0,0,0,18,2,74,2,,,,,180.03307641599986,181.03327641600026,181.03327641600026,181.03327641600026,181.03327641600026,181.05035729100018,182.02450016600005,182.02450016600005,c,1,0.26877637500001583,None,1,001,2023-10-14_20h03.11.899,Sequence_Learning,2023.1.3,None,
-150,z,0,0,0,0,18,3,75,3,,,,,182.3073260000001,183.29462037500025,183.29462037500025,183.29462037500025,183.29462037500025,183.30352516599987,184.29112804099987,184.29112804099987,z,1,0.2803160839998782,None,1,001,2023-10-14_20h03.11.899,Sequence_Learning,2023.1.3,None,
-50,x,0,0,0,0,19,0,76,0,,,,,184.583195875,185.57710799999995,185.57710799999995,185.57710799999995,185.57710799999995,185.57710799999995,186.5665698749999,186.5665698749999,x,1,0.26009925000016665,None,1,001,2023-10-14_20h03.11.899,Sequence_Learning,2023.1.3,None,
150,v,0,0,0,0,19,1,77,1,,,,,186.84125941599996,187.82881179100013,187.82881179100013,187.82881179100013,187.82881179100013,187.8383557080001,188.8245635000003,188.8245635000003,v,1,0.287702624999838,None,1,001,2023-10-14_20h03.11.899,Sequence_Learning,2023.1.3,None,
50,c,0,0,0,0,19,2,78,2,,,,,189.12422916600008,190.11150854100015,190.11150854100015,190.11150854100015,190.11150854100015,190.1205962500003,191.11677770799997,191.11677770799997,c,1,0.220508584000072,None,1,001,2023-10-14_20h03.11.899,Sequence_Learning,2023.1.3,None,
-150,z,0,0,0,0,19,3,79,3,,,,,191.34963070799995,192.3444629579999,192.3444629579999,192.3444629579999,192.3444629579999,192.3444629579999,193.3414640410001,193.3414640410001,z,1,0.27972854199970243,None,1,001,2023-10-14_20h03.11.899,Sequence_Learning,2023.1.3,None,
-50,x,0,0,0,0,20,0,80,0,,,,,193.63345212500008,194.62737570800027,194.62737570800027,194.62737570800027,194.62737570800027,194.62737570800027,195.625224291,195.625224291,x,1,0.34696154199991724,None,1,001,2023-10-14_20h03.11.899,Sequence_Learning,2023.1.3,None,
150,v,0,0,0,0,20,1,81,1,,,,,195.98359062500003,196.9780487500002,196.9780487500002,196.9780487500002,196.9780487500002,196.9780487500002,197.97508179099987,197.97508179099987,v,1,0.23175716700006888,None,1,001,2023-10-14_20h03.11.899,Sequence_Learning,2023.1.3,None,
50,c,0,0,0,0,20,2,82,2,,,,,198.21699949999993,199.21088754099992,199.21088754099992,199.21088754099992,199.21088754099992,199.21088754099992,200.20033683300016,200.20033683300016,c,1,0.25927454199973,None,1,001,2023-10-14_20h03.11.899,Sequence_Learning,2023.1.3,None,
-150,z,0,0,0,0,20,3,83,3,,,,,200.47545287499997,201.46252675000005,201.46252675000005,201.46252675000005,201.46252675000005,201.4720002500003,202.4670835830002,202.4670835830002,z,1,0.24359812500006228,None,1,001,2023-10-14_20h03.11.899,Sequence_Learning,2023.1.3,None,
-50,x,0,0,0,0,21,0,84,0,,,,,202.7259693330002,203.71235720799996,203.71235720799996,203.71235720799996,203.71235720799996,203.72185600000012,204.71720725000023,204.71720725000023,x,1,0.2377766250001514,None,1,001,2023-10-14_20h03.11.899,Sequence_Learning,2023.1.3,None,
150,v,0,0,0,0,21,1,85,1,,,,,204.96646408300012,205.9613052499999,205.9613052499999,205.9613052499999,205.9613052499999,205.9613052499999,206.9587112500003,206.9587112500003,v,1,0.2221694589998151,None,1,001,2023-10-14_20h03.11.899,Sequence_Learning,2023.1.3,None,
50,c,0,0,0,0,21,2,86,2,,,,,207.1915170000002,208.17933083300022,208.17933083300022,208.17933083300022,208.17933083300022,208.18840154100008,209.18299512500016,209.18299512500016,c,1,0.23188700099990456,None,1,001,2023-10-14_20h03.11.899,Sequence_Learning,2023.1.3,None,
-150,z,0,0,0,0,21,3,87,3,,,,,209.42568500000016,210.41222900000002,210.41222900000002,210.41222900000002,210.41222900000002,210.42102225000008,211.41744599999993,211.41744599999993,z,1,0.1977807089997441,None,1,001,2023-10-14_20h03.11.899,Sequence_Learning,2023.1.3,None,
-50,x,0,0,0,0,22,0,88,0,,,,,211.62502799999993,212.6123197080001,212.6123197080001,212.6123197080001,212.6123197080001,212.62177650000012,213.609170833,213.609170833,x,1,0.19345404199975746,None,1,001,2023-10-14_20h03.11.899,Sequence_Learning,2023.1.3,None,
150,v,0,0,0,0,22,1,89,1,,,,,213.81665154100028,214.81201179100026,214.81201179100026,214.81201179100026,214.81201179100026,214.81201179100026,215.8089896659999,215.8089896659999,v,1,0.3284844170002543,None,1,001,2023-10-14_20h03.11.899,Sequence_Learning,2023.1.3,None,
50,c,0,0,0,0,22,2,90,2,,,,,216.15085870800021,217.1450707910003,217.1450707910003,217.1450707910003,217.1450707910003,217.1450707910003,218.1342938329999,218.1342938329999,c,1,0.2718439589998525,None,1,001,2023-10-14_20h03.11.899,Sequence_Learning,2023.1.3,None,
-150,z,0,0,0,0,22,3,91,3,,,,,218.4176399580001,219.40210095800012,219.40210095800012,219.40210095800012,219.40210095800012,219.41193433299986,220.66458383300005,220.66458383300005,z,1,0.2453392510001322,None,1,001,2023-10-14_20h03.11.899,Sequence_Learning,2023.1.3,None,
-50,x,0,0,0,0,23,0,92,0,,,,,220.92594125000005,221.91307766599994,221.91307766599994,221.91307766599994,221.91307766599994,221.92224175,222.91772149999997,222.91772149999997,x,1,0.28595916699987356,None,1,001,2023-10-14_20h03.11.899,Sequence_Learning,2023.1.3,None,
150,v,0,0,0,0,23,1,93,1,,,,,223.21782800000028,224.21224466600006,224.21224466600006,224.21224466600006,224.21224466600006,224.21224466600006,225.20120341600023,225.20120341600023,v,1,0.23607062500013853,None,1,001,2023-10-14_20h03.11.899,Sequence_Learning,2023.1.3,None,
50,c,0,0,0,0,23,2,94,2,,,,,225.45125520800002,226.4455499579999,226.4455499579999,226.4455499579999,226.4455499579999,226.4455499579999,227.442591,227.442591,c,1,0.24621579199992993,None,1,001,2023-10-14_20h03.11.899,Sequence_Learning,2023.1.3,None,
-150,z,0,0,0,0,23,3,95,3,,,,,227.70128891600007,228.6954452079999,228.6954452079999,228.6954452079999,228.6954452079999,228.6954452079999,229.68389108300016,229.68389108300016,z,1,0.3006093339995459,None,1,001,2023-10-14_20h03.11.899,Sequence_Learning,2023.1.3,None,
-50,x,0,0,0,0,24,0,96,0,,,,,229.99254762500004,230.97920683300026,230.97920683300026,230.97920683300026,230.97920683300026,230.98826012500012,231.98470991600016,231.98470991600016,x,1,0.5089874589998544,None,1,001,2023-10-14_20h03.11.899,Sequence_Learning,2023.1.3,None,
150,v,0,0,0,0,24,1,97,1,,,,,232.5102717079999,233.51833079100015,233.51833079100015,233.51833079100015,233.51833079100015,233.53548941600002,234.50144179100016,234.50144179100016,v,1,0.28183291699997426,None,1,001,2023-10-14_20h03.11.899,Sequence_Learning,2023.1.3,None,
50,c,0,0,0,0,24,2,98,2,,,,,234.79348062500003,235.77943083299988,235.77943083299988,235.77943083299988,235.77943083299988,235.7883078750001,236.77624754099998,236.77624754099998,c,1,0.2323334170000635,None,1,001,2023-10-14_20h03.11.899,Sequence_Learning,2023.1.3,None,
-150,z,0,0,0,0,24,3,99,3,,,,,237.01736604100006,238.012857791,238.012857791,238.012857791,238.012857791,238.012857791,239.00969316600003,239.00969316600003,z,1,0.25287129199978153,None,1,001,2023-10-14_20h03.11.899,Sequence_Learning,2023.1.3,None,
-50,x,0,0,0,0,25,0,100,0,,,,,239.2762822499999,240.2632524579999,240.2632524579999,240.2632524579999,240.2632524579999,240.27209916599986,241.26827912499994,241.26827912499994,x,1,0.29413379199968404,None,1,001,2023-10-14_20h03.11.899,Sequence_Learning,2023.1.3,None,
150,v,0,0,0,0,25,1,101,1,,,,,241.57593116599992,242.56361179099986,242.56361179099986,242.56361179099986,242.56361179099986,242.5729826249999,243.5684072500003,243.5684072500003,v,1,0.27593470900001194,None,1,001,2023-10-14_20h03.11.899,Sequence_Learning,2023.1.3,None,
50,c,0,0,0,0,25,2,102,2,,,,,243.85981066600016,244.84729241600007,244.84729241600007,244.84729241600007,244.84729241600007,244.85636629100009,245.85188616599999,245.85188616599999,c,1,0.2285514999998668,None,1,001,2023-10-14_20h03.11.899,Sequence_Learning,2023.1.3,None,
-150,z,0,0,0,0,25,3,103,3,,,,,246.09337487499988,247.08002345800014,247.08002345800014,247.08002345800014,247.08002345800014,247.08897708299992,248.0852212079999,248.0852212079999,z,1,0.28721924999990733,None,1,001,2023-10-14_20h03.11.899,Sequence_Learning,2023.1.3,None,
-50,x,0,0,0,0,26,0,104,0,,,,,248.3852569999999,249.38553345800028,249.38553345800028,249.38553345800028,249.38553345800028,249.402757416,250.368659708,250.368659708,x,1,0.3167662089999794,None,1,001,2023-10-14_20h03.11.899,Sequence_Learning,2023.1.3,None,
150,v,0,0,0,0,26,1,105,1,,,,,250.69353970800012,251.6852757910001,251.6852757910001,251.6852757910001,251.6852757910001,251.69499154100004,252.67726191600013,252.67726191600013,v,1,0.26329445899955317,None,1,001,2023-10-14_20h03.11.899,Sequence_Learning,2023.1.3,None,
50,c,0,0,0,0,26,2,106,2,,,,,252.95162087500012,253.9459299580003,253.9459299580003,253.9459299580003,253.9459299580003,253.9459299580003,254.94357674999992,254.94357674999992,c,1,0.27531616699980077,None,1,001,2023-10-14_20h03.11.899,Sequence_Learning,2023.1.3,None,
-150,z,0,0,0,0,26,3,107,3,,,,,255.2267615830001,256.2138137500001,256.2138137500001,256.2138137500001,256.2138137500001,256.22266070800015,257.218896458,257.218896458,z,1,0.47094004199971096,None,1,001,2023-10-14_20h03.11.899,Sequence_Learning,2023.1.3,None,
-50,x,0,0,0,0,27,0,108,0,,,,,257.7022483750002,258.6963075829999,258.6963075829999,258.6963075829999,258.6963075829999,258.6963075829999,259.68563425,259.68563425,x,1,0.3503619170001002,None,1,001,2023-10-14_20h03.11.899,Sequence_Learning,2023.1.3,None,
150,v,0,0,0,0,27,1,109,1,,,,,260.05221600000004,261.0464341659999,261.0464341659999,261.0464341659999,261.0464341659999,261.0464341659999,262.04384129100026,262.04384129100026,v,1,0.2623713749999297,None,1,001,2023-10-14_20h03.11.899,Sequence_Learning,2023.1.3,None,
50,c,0,0,0,0,27,2,110,2,,,,,262.3190749579999,263.312819708,263.312819708,263.312819708,263.312819708,263.312819708,264.30240945800006,264.30240945800006,c,1,0.19681800099988322,None,1,001,2023-10-14_20h03.11.899,Sequence_Learning,2023.1.3,None,
-150,z,0,0,0,0,27,3,111,3,,,,,264.5111672080002,265.4971448330002,265.4971448330002,265.4971448330002,265.4971448330002,265.506077041,266.50248958300017,266.50248958300017,z,1,0.2002060419999907,None,1,001,2023-10-14_20h03.11.899,Sequence_Learning,2023.1.3,None,
-50,x,0,0,0,0,28,0,112,0,,,,,266.71097662500006,267.7027980410003,267.7027980410003,267.7027980410003,267.7027980410003,267.71264116600014,268.7025638330001,268.7025638330001,x,1,0.32289183399961985,None,1,001,2023-10-14_20h03.11.899,Sequence_Learning,2023.1.3,None,
150,v,0,0,0,0,28,1,113,1,,,,,269.03608483300013,270.0298648329999,270.0298648329999,270.0298648329999,270.0298648329999,270.0298648329999,271.0274703750001,271.0274703750001,v,1,0.3020344169999589,None,1,001,2023-10-14_20h03.11.899,Sequence_Learning,2023.1.3,None,
50,c,0,0,0,0,28,2,114,2,,,,,271.3438459580002,272.33142129099997,272.33142129099997,272.33142129099997,272.33142129099997,272.3408060410002,273.33613295800023,273.33613295800023,c,1,0.27014075099987167,None,1,001,2023-10-14_20h03.11.899,Sequence_Learning,2023.1.3,None,
-150,z,0,0,0,0,28,3,115,3,,,,,273.6194169579999,274.6132614160001,274.6132614160001,274.6132614160001,274.6132614160001,274.6132614160001,275.61088095800005,275.61088095800005,z,1,0.25971854199997324,None,1,001,2023-10-14_20h03.11.899,Sequence_Learning,2023.1.3,None,
-50,x,0,0,0,0,29,0,116,0,,,,,275.88617862499996,276.88638416599997,276.88638416599997,276.88638416599997,276.88638416599997,276.9035623750001,277.86953329100015,277.86953329100015,x,1,0.2740931670000464,None,1,001,2023-10-14_20h03.11.899,Sequence_Learning,2023.1.3,None,
150,v,0,0,0,0,29,1,117,1,,,,,278.15304074999995,279.1467787910001,279.1467787910001,279.1467787910001,279.1467787910001,279.1467787910001,280.14434325,280.14434325,v,1,0.36889837599983366,None,1,001,2023-10-14_20h03.11.899,Sequence_Learning,2023.1.3,None,
50,c,0,0,0,0,29,2,118,2,,,,,280.52773983299994,281.51523695800006,281.51523695800006,281.51523695800006,281.51523695800006,281.5247357080002,282.5197081659999,282.5197081659999,c,1,0.23835191699981806,None,1,001,2023-10-14_20h03.11.899,Sequence_Learning,2023.1.3,None,
-150,z,0,0,0,0,29,3,119,3,,,,,282.7698821660001,283.7634362910003,283.7634362910003,283.7634362910003,283.7634362910003,283.7634362910003,284.7611900410002,284.7611900410002,z,1,0.3087387509999644,None,1,001,2023-10-14_20h03.11.899,Sequence_Learning,2023.1.3,None,
-50,x,0,0,0,0,30,0,120,0,,,,,285.07770795800025,286.0651576250002,286.0651576250002,286.0651576250002,286.0651576250002,286.0746778749999,287.0698028750003,287.0698028750003,x,1,0.28136112499987576,None,1,001,2023-10-14_20h03.11.899,Sequence_Learning,2023.1.3,None,
150,v,0,0,0,0,30,1,121,1,,,,,287.3612040830003,288.34811824999997,288.34811824999997,288.34811824999997,288.34811824999997,288.35712758299996,289.35326187500004,289.35326187500004,v,1,0.31993145900014497,None,1,001,2023-10-14_20h03.11.899,Sequence_Learning,2023.1.3,None,
50,c,0,0,0,0,30,2,122,2,,,,,289.6868222500002,290.6805209580002,290.6805209580002,290.6805209580002,290.6805209580002,290.6805209580002,291.6780578329999,291.6780578329999,c,1,0.2680270000000746,None,1,001,2023-10-14_20h03.11.899,Sequence_Learning,2023.1.3,None,
-150,z,0,0,0,0,30,3,123,3,,,,,291.96105079100016,292.9482553329999,292.9482553329999,292.9482553329999,292.9482553329999,292.95724466599995,293.95338541599995,293.95338541599995,z,1,0.3002846250001312,None,1,001,2023-10-14_20h03.11.899,Sequence_Learning,2023.1.3,None,
-50,x,0,0,0,0,31,0,124,0,,,,,294.2694522910001,295.26363091600024,295.26363091600024,295.26363091600024,295.26363091600024,295.26363091600024,296.2617762499999,296.2617762499999,x,1,0.24868475099992793,None,1,001,2023-10-14_20h03.11.899,Sequence_Learning,2023.1.3,None,
150,v,0,0,0,0,31,1,125,1,,,,,296.5271178329999,297.51553841600025,297.51553841600025,297.51553841600025,297.51553841600025,297.5242923330002,298.51178741600006,298.51178741600006,v,1,0.13801020899973082,None,1,001,2023-10-14_20h03.11.899,Sequence_Learning,2023.1.3,None,
50,c,0,0,0,0,31,2,126,2,,,,,298.66206950000014,299.6489796660003,299.6489796660003,299.6489796660003,299.6489796660003,299.6583734159999,300.653568833,300.653568833,c,1,0.2296817089995784,None,1,001,2023-10-14_20h03.11.899,Sequence_Learning,2023.1.3,None,
-150,z,0,0,0,0,31,3,127,3,,,,,300.895189416,301.8824266659999,301.8824266659999,301.8824266659999,301.8824266659999,301.8914762909999,302.87866895800016,302.87866895800016,z,1,0.36973870900010297,None,1,001,2023-10-14_20h03.11.899,Sequence_Learning,2023.1.3,None,
-50,x,0,0,0,0,32,0,128,0,,,,,303.2614262500001,304.2491287500002,304.2491287500002,304.2491287500002,304.2491287500002,304.2582093750002,305.253693958,305.253693958,x,1,0.29217125000013766,None,1,001,2023-10-14_20h03.11.899,Sequence_Learning,2023.1.3,None,
150,v,0,0,0,0,32,1,129,1,,,,,305.55965129100014,306.54839304100005,306.54839304100005,306.54839304100005,306.54839304100005,306.557378041,307.545667375,307.545667375,v,1,0.27513795899994875,None,1,001,2023-10-14_20h03.11.899,Sequence_Learning,2023.1.3,None,
50,c,0,0,0,0,32,2,130,2,,,,,307.8371467500001,308.8305600409999,308.8305600409999,308.8305600409999,308.8305600409999,308.8305600409999,309.82862454099995,309.82862454099995,c,1,0.31633816700013995,None,1,001,2023-10-14_20h03.11.899,Sequence_Learning,2023.1.3,None,
-150,z,0,0,0,0,32,3,131,3,,,,,310.16234595800006,311.14951491600004,311.14951491600004,311.14951491600004,311.14951491600004,311.1589961660002,312.15400524999995,312.15400524999995,z,1,0.33459875099970304,None,1,001,2023-10-14_20h03.11.899,Sequence_Learning,2023.1.3,None,
-50,x,0,0,0,0,33,0,132,0,,,,,312.5039878329999,313.50423304100013,313.50423304100013,313.50423304100013,313.50423304100013,313.521344708,314.48735262499986,314.48735262499986,x,1,0.24214454200000546,None,1,001,2023-10-14_20h03.11.899,Sequence_Learning,2023.1.3,None,
150,v,0,0,0,0,33,1,133,1,,,,,314.7450072910001,315.7323361250001,315.7323361250001,315.7323361250001,315.7323361250001,315.7414106250003,316.7373982080003,316.7373982080003,v,1,0.3104002509999191,None,1,001,2023-10-14_20h03.11.899,Sequence_Learning,2023.1.3,None,
50,c,0,0,0,0,33,2,134,2,,,,,317.0619567910003,318.0492560830003,318.0492560830003,318.0492560830003,318.0492560830003,318.058359958,319.05424166600005,319.05424166600005,c,1,0.2876014169996779,None,1,001,2023-10-14_20h03.11.899,Sequence_Learning,2023.1.3,None,
-150,z,0,0,0,0,33,3,135,3,,,,,319.35417825000013,320.3543880000002,320.3543880000002,320.3543880000002,320.3543880000002,320.371598791,321.3378130410001,321.3378130410001,z,1,0.2633845000000292,None,1,001,2023-10-14_20h03.11.899,Sequence_Learning,2023.1.3,None,
-50,x,0,0,0,0,34,0,136,0,,,,,321.6120409580003,322.5995108750003,322.5995108750003,322.5995108750003,322.5995108750003,322.609013666,323.6042748750001,323.6042748750001,x,1,0.350708874999782,None,1,001,2023-10-14_20h03.11.899,Sequence_Learning,2023.1.3,None,
150,v,0,0,0,0,34,1,137,1,,,,,323.9709202500003,324.965503375,324.965503375,324.965503375,324.965503375,324.965503375,325.96246391600016,325.96246391600016,c,0,0.3591235419999066,None,1,001,2023-10-14_20h03.11.899,Sequence_Learning,2023.1.3,None,
50,c,0,0,0,0,34,2,138,2,,,,,326.3377095000001,327.33165283300013,327.33165283300013,327.33165283300013,327.33165283300013,327.33165283300013,328.3211417910002,328.3211417910002,c,1,0.3265829169999961,None,1,001,2023-10-14_20h03.11.899,Sequence_Learning,2023.1.3,None,
-150,z,0,0,0,0,34,3,139,3,,,,,328.66245475000005,329.6488611660002,329.6488611660002,329.6488611660002,329.6488611660002,329.6578508329999,330.6460206249999,330.6460206249999,z,1,0.28180720800037307,None,1,001,2023-10-14_20h03.11.899,Sequence_Learning,2023.1.3,None,
-50,x,0,0,0,0,35,0,140,0,,,,,330.93787820800026,331.9235711250003,331.9235711250003,331.9235711250003,331.9235711250003,331.9386172909999,332.9293575410002,332.9293575410002,x,1,0.5871245009998347,None,1,001,2023-10-14_20h03.11.899,Sequence_Learning,2023.1.3,None,
150,v,0,0,0,0,35,1,141,1,,,,,333.5301629579999,334.51625375000003,334.51625375000003,334.51625375000003,334.51625375000003,334.5256602909999,335.5213140000001,335.5213140000001,v,1,0.2808574169998792,None,1,001,2023-10-14_20h03.11.899,Sequence_Learning,2023.1.3,None,
50,c,0,0,0,0,35,2,142,2,,,,,335.8127009580003,336.79963716600014,336.79963716600014,336.79963716600014,336.79963716600014,336.80860354100014,337.8039557080001,337.8039557080001,c,1,0.25729258299998037,None,1,001,2023-10-14_20h03.11.899,Sequence_Learning,2023.1.3,None,
-150,z,0,0,0,0,35,3,143,3,,,,,338.07138650000024,339.0659504160003,339.0659504160003,339.0659504160003,339.0659504160003,339.0659504160003,340.0628528330003,340.0628528330003,z,1,0.29287762500007375,None,1,001,2023-10-14_20h03.11.899,Sequence_Learning,2023.1.3,None,
-50,x,0,0,0,0,36,0,144,0,,,,,340.37156675000006,341.3660769160001,341.3660769160001,341.3660769160001,341.3660769160001,341.3660769160001,342.35394966600006,342.35394966600006,x,1,0.35134254199965653,None,1,001,2023-10-14_20h03.11.899,Sequence_Learning,2023.1.3,None,
150,v,0,0,0,0,36,1,145,1,,,,,342.721564208,343.71564279099994,343.71564279099994,343.71564279099994,343.71564279099994,343.71564279099994,344.7128989580001,344.7128989580001,v,1,0.28490637599952606,None,1,001,2023-10-14_20h03.11.899,Sequence_Learning,2023.1.3,None,
50,c,0,0,0,0,36,2,146,2,,,,,345.01298124999994,346.00043570800017,346.00043570800017,346.00043570800017,346.00043570800017,346.00962974999993,347.0040882500002,347.0040882500002,c,1,0.3092466670000249,None,1,001,2023-10-14_20h03.11.899,Sequence_Learning,2023.1.3,None,
-150,z,0,0,0,0,36,3,147,3,,,,,347.3273086250001,348.31668658299986,348.31668658299986,348.31668658299986,348.31668658299986,348.3255113330001,349.3134116250003,349.3134116250003,z,1,0.2498041259996171,None,1,001,2023-10-14_20h03.11.899,Sequence_Learning,2023.1.3,None,
-50,x,0,0,0,0,37,0,148,0,,,,,349.57962275,350.56670429099995,350.56670429099995,350.56670429099995,350.56670429099995,350.5756717080003,351.57176312499996,351.57176312499996,x,1,0.28601724999998623,None,1,001,2023-10-14_20h03.11.899,Sequence_Learning,2023.1.3,None,
150,v,0,0,0,0,37,1,149,1,,,,,351.871866083,352.8720773750001,352.8720773750001,352.8720773750001,352.8720773750001,352.889187708,353.855298208,353.855298208,v,1,0.2738687920000302,None,1,001,2023-10-14_20h03.11.899,Sequence_Learning,2023.1.3,None,
50,c,0,0,0,0,37,2,150,2,,,,,354.14506725,355.13321595800016,355.13321595800016,355.13321595800016,355.13321595800016,355.142161708,356.130042666,356.130042666,c,1,0.27571837499999674,None,1,001,2023-10-14_20h03.11.899,Sequence_Learning,2023.1.3,None,
-150,z,0,0,0,0,37,3,151,3,,,,,356.4219955409999,357.4158708330001,357.4158708330001,357.4158708330001,357.4158708330001,357.4158708330001,358.41379366599995,358.41379366599995,z,1,0.11736258399969302,None,1,001,2023-10-14_20h03.11.899,Sequence_Learning,2023.1.3,None,
-50,x,0,0,0,0,38,0,152,0,,,,,358.54630770799986,359.53834370799996,359.53834370799996,359.53834370799996,359.53834370799996,359.53834370799996,360.5387649160002,360.5387649160002,x,1,0.29732795800009626,None,1,001,2023-10-14_20h03.11.899,Sequence_Learning,2023.1.3,None,
150,v,0,0,0,0,38,1,153,1,,,,,360.846654166,361.834242333,361.834242333,361.834242333,361.834242333,361.84370741600014,362.8303526660002,362.8303526660002,v,1,0.30196045899992896,None,1,001,2023-10-14_20h03.11.899,Sequence_Learning,2023.1.3,None,
50,c,0,0,0,0,38,2,154,2,,,,,363.14694899999995,364.1342909160003,364.1342909160003,364.1342909160003,364.1342909160003,364.14374687500003,365.13892887500015,365.13892887500015,c,1,0.3370292919998974,None,1,001,2023-10-14_20h03.11.899,Sequence_Learning,2023.1.3,None,
-150,z,0,0,0,0,38,3,155,3,,,,,365.4889335830003,366.48914408300016,366.48914408300016,366.48914408300016,366.48914408300016,366.50623720800013,367.4723505830002,367.4723505830002,z,1,0.2866610419996505,None,1,001,2023-10-14_20h03.11.899,Sequence_Learning,2023.1.3,None,
-50,x,0,0,0,0,39,0,156,0,,,,,367.7726898330002,368.76664470800006,368.76664470800006,368.76664470800006,368.76664470800006,368.76664470800006,369.76411587500024,369.76411587500024,x,1,0.47523479200026486,None,1,001,2023-10-14_20h03.11.899,Sequence_Learning,2023.1.3,None,
150,v,0,0,0,0,39,1,157,1,,,,,370.25568225000006,371.2497063330002,371.2497063330002,371.2497063330002,371.2497063330002,371.2497063330002,372.24721920799993,372.24721920799993,v,1,0.33338170899969555,None,1,001,2023-10-14_20h03.11.899,Sequence_Learning,2023.1.3,None,
50,c,0,0,0,0,39,2,158,2,,,,,372.596804541,373.58406566600024,373.58406566600024,373.58406566600024,373.58406566600024,373.59291916600023,374.58921891599994,374.58921891599994,c,1,0.25835895799991704,None,1,001,2023-10-14_20h03.11.899,Sequence_Learning,2023.1.3,None,
-150,z,0,0,0,0,39,3,159,3,,,,,374.86256083299986,375.85152637500005,375.85152637500005,375.85152637500005,375.85152637500005,375.86098225000023,376.85590337500025,376.85590337500025,z,1,0.23404137499983335,None,1,001,2023-10-14_20h03.11.899,Sequence_Learning,2023.1.3,None,
-50,x,0,0,0,0,40,0,160,0,,,,,377.1059512500001,378.09980862500015,378.09980862500015,378.09980862500015,378.09980862500015,378.09980862500015,379.09784604100014,379.09784604100014,x,1,0.26050074999966455,None,1,001,2023-10-14_20h03.11.899,Sequence_Learning,2023.1.3,None,
150,v,0,0,0,0,40,1,161,1,,,,,379.37287808300016,380.36722120800005,380.36722120800005,380.36722120800005,380.36722120800005,380.36722120800005,381.3553216250002,381.3553216250002,v,1,0.2812152920000699,None,1,001,2023-10-14_20h03.11.899,Sequence_Learning,2023.1.3,None,
50,c,0,0,0,0,40,2,162,2,,,,,381.64738883300015,382.63469316600003,382.63469316600003,382.63469316600003,382.63469316600003,382.64412462500013,383.63948304099995,383.63948304099995,c,1,0.30449554199958584,None,1,001,2023-10-14_20h03.11.899,Sequence_Learning,2023.1.3,None,
-150,z,0,0,0,0,40,3,163,3,,,,,383.9561705000001,384.9563572080001,384.9563572080001,384.9563572080001,384.9563572080001,384.9735390000001,385.9395988330002,385.9395988330002,z,1,0.26914229199974216,None,1,001,2023-10-14_20h03.11.899,Sequence_Learning,2023.1.3,None,
-50,x,0,0,0,0,41,0,164,0,,,,,386.2228861660001,387.217296583,387.217296583,387.217296583,387.217296583,387.217296583,388.2143572499999,388.2143572499999,x,1,0.31178416700004163,None,1,001,2023-10-14_20h03.11.899,Sequence_Learning,2023.1.3,None,
150,v,0,0,0,0,41,1,165,1,,,,,388.53959695799995,389.5239901250002,389.5239901250002,389.5239901250002,389.5239901250002,389.53379262499993,390.52305216600007,390.52305216600007,v,1,0.3086130419997062,None,1,001,2023-10-14_20h03.11.899,Sequence_Learning,2023.1.3,None,
50,c,0,0,0,0,41,2,166,2,,,,,390.8474329999999,391.83505266600014,391.83505266600014,391.83505266600014,391.83505266600014,391.8441485829999,392.83969241600016,392.83969241600016,c,1,0.2668433749995529,None,1,001,2023-10-14_20h03.11.899,Sequence_Learning,2023.1.3,None,
-150,z,0,0,0,0,41,3,167,3,,,,,393.1148054999999,394.1016333749999,394.1016333749999,394.1016333749999,394.1016333749999,394.11108324999987,395.0983247080003,395.0983247080003,z,1,0.35475545899998906,None,1,001,2023-10-14_20h03.11.899,Sequence_Learning,2023.1.3,None,
-50,x,0,0,0,0,42,0,168,0,,,,,395.4645955000001,396.45140329100013,396.45140329100013,396.45140329100013,396.45140329100013,396.4602675000001,397.4556375410002,397.4556375410002,x,1,0.28445954200014967,None,1,001,2023-10-14_20h03.11.899,Sequence_Learning,2023.1.3,None,
150,v,0,0,0,0,42,1,169,1,,,,,397.75658925000016,398.7508217499999,398.7508217499999,398.7508217499999,398.7508217499999,398.7508217499999,399.74815579100004,399.74815579100004,v,1,0.25886774999980844,None,1,001,2023-10-14_20h03.11.899,Sequence_Learning,2023.1.3,None,
50,c,0,0,0,0,42,2,170,2,,,,,400.0232405410002,401.01770104100024,401.01770104100024,401.01770104100024,401.01770104100024,401.01770104100024,402.0147444160002,402.0147444160002,c,1,0.3615425010002582,None,1,001,2023-10-14_20h03.11.899,Sequence_Learning,2023.1.3,None,
-150,z,0,0,0,0,42,3,171,3,,,,,402.3900211660002,403.3901887080001,403.3901887080001,403.3901887080001,403.3901887080001,403.407377,404.3734293749999,404.3734293749999,z,1,0.35145349999993414,None,1,001,2023-10-14_20h03.11.899,Sequence_Learning,2023.1.3,None,
-50,x,0,0,0,0,43,0,172,0,,,,,404.7401481249999,405.7344819580003,405.7344819580003,405.7344819580003,405.7344819580003,405.7344819580003,406.7235255830001,406.7235255830001,x,1,0.2391405839998697,None,1,001,2023-10-14_20h03.11.899,Sequence_Learning,2023.1.3,None,
150,v,0,0,0,0,43,1,173,1,,,,,406.97349862500005,407.9580168749999,407.9580168749999,407.9580168749999,407.9580168749999,407.96781179100026,408.95695562499986,408.95695562499986,v,1,0.4383677920000082,None,1,001,2023-10-14_20h03.11.899,Sequence_Learning,2023.1.3,None,
50,c,0,0,0,0,43,2,174,2,,,,,409.40687879100005,410.3913415000002,410.3913415000002,410.3913415000002,410.3913415000002,410.40110029100015,411.389644375,411.389644375,c,1,0.23416041699965717,None,1,001,2023-10-14_20h03.11.899,Sequence_Learning,2023.1.3,None,
-150,z,0,0,0,0,43,3,175,3,,,,,411.63192766600014,412.619195666,412.619195666,412.619195666,412.619195666,412.62890904100004,413.6231419999999,413.6231419999999,z,1,0.2955794589997822,None,1,001,2023-10-14_20h03.11.899,Sequence_Learning,2023.1.3,None,
-50,x,0,0,0,0,44,0,176,0,,,,,413.932090625,414.9190159580003,414.9190159580003,414.9190159580003,414.9190159580003,414.9285956660001,415.92376787500007,415.92376787500007,x,1,0.34990062499991836,None,1,001,2023-10-14_20h03.11.899,Sequence_Learning,2023.1.3,None,
150,v,0,0,0,0,44,1,177,1,,,,,416.2813947499999,417.26914691599995,417.26914691599995,417.26914691599995,417.26914691599995,417.27822775000004,418.2738453330003,418.2738453330003,v,1,0.2947466259997782,None,1,001,2023-10-14_20h03.11.899,Sequence_Learning,2023.1.3,None,
50,c,0,0,0,0,44,2,178,2,,,,,418.5829708330002,419.56900316600013,419.56900316600013,419.56900316600013,419.56900316600013,419.5778338750001,420.5738743750003,420.5738743750003,c,1,0.23795325099990805,None,1,001,2023-10-14_20h03.11.899,Sequence_Learning,2023.1.3,None,
-150,z,0,0,0,0,44,3,179,3,,,,,420.82396000000017,421.80955995800014,421.80955995800014,421.80955995800014,421.80955995800014,421.82470004100014,422.8073047080002,422.8073047080002,z,1,0.2704475420000563,None,1,001,2023-10-14_20h03.11.899,Sequence_Learning,2023.1.3,None,
-50,x,0,0,0,0,45,0,180,0,,,,,423.090745041,424.08501137500025,424.08501137500025,424.08501137500025,424.08501137500025,424.08501137500025,425.08239620799986,425.08239620799986,x,1,0.22549016699986169,None,1,001,2023-10-14_20h03.11.899,Sequence_Learning,2023.1.3,None,
150,v,0,0,0,0,45,1,181,1,,,,,425.3235128330002,426.317961791,426.317961791,426.317961791,426.317961791,426.317961791,427.31548087500005,427.31548087500005,v,1,0.2694796670002688,None,1,001,2023-10-14_20h03.11.899,Sequence_Learning,2023.1.3,None,
50,c,0,0,0,0,45,2,182,2,,,,,427.5991336249999,428.58624283300014,428.58624283300014,428.58624283300014,428.58624283300014,428.5957047500001,429.590933125,429.590933125,c,1,0.27755779199969766,None,1,001,2023-10-14_20h03.11.899,Sequence_Learning,2023.1.3,None,
-150,z,0,0,0,0,45,3,183,3,,,,,429.88279887499993,430.8690296660002,430.8690296660002,430.8690296660002,430.8690296660002,430.87810612500016,431.87429891600004,431.87429891600004,z,1,0.25555020899992087,None,1,001,2023-10-14_20h03.11.899,Sequence_Learning,2023.1.3,None,
-50,x,0,0,0,0,46,0,184,0,,,,,432.14027241600024,433.13497662500004,433.13497662500004,433.13497662500004,433.13497662500004,433.13497662500004,434.13230645800013,434.13230645800013,x,1,0.4535512090001248,None,1,001,2023-10-14_20h03.11.899,Sequence_Learning,2023.1.3,None,
150,v,0,0,0,0,46,1,185,1,,,,,434.5984974160001,435.5858960830001,435.5858960830001,435.5858960830001,435.5858960830001,435.594838125,436.5828704579999,436.5828704579999,v,1,0.3374159589998271,None,1,001,2023-10-14_20h03.11.899,Sequence_Learning,2023.1.3,None,
50,c,0,0,0,0,46,2,186,2,,,,,436.93193841599987,437.91943541599994,437.91943541599994,437.91943541599994,437.91943541599994,437.928866708,438.9235305000002,438.9235305000002,c,1,0.2807518329996128,None,1,001,2023-10-14_20h03.11.899,Sequence_Learning,2023.1.3,None,
-150,z,0,0,0,0,46,3,187,3,,,,,439.215657833,440.20325270800004,440.20325270800004,440.20325270800004,440.20325270800004,440.2124160000003,441.2078323750002,441.2078323750002,z,1,0.307493083999816,None,1,001,2023-10-14_20h03.11.899,Sequence_Learning,2023.1.3,None,
-50,x,0,0,0,0,47,0,188,0,,,,,441.5240314580001,442.5185544579999,442.5185544579999,442.5185544579999,442.5185544579999,442.5185544579999,443.5158906659999,443.5158906659999,x,1,0.2852121669998269,None,1,001,2023-10-14_20h03.11.899,Sequence_Learning,2023.1.3,None,
150,v,0,0,0,0,47,1,189,1,,,,,443.8152996250001,444.8028531250002,444.8028531250002,444.8028531250002,444.8028531250002,444.8117897500001,445.7995717910003,445.7995717910003,v,1,0.28826337499958754,None,1,001,2023-10-14_20h03.11.899,Sequence_Learning,2023.1.3,None,
50,c,0,0,0,0,47,2,190,2,,,,,446.09965520800006,447.08697354100013,447.08697354100013,447.08697354100013,447.08697354100013,447.0962570830002,448.08325216599997,448.08325216599997,c,1,0.34608737600001405,None,1,001,2023-10-14_20h03.11.899,Sequence_Learning,2023.1.3,None,
-150,z,0,0,0,0,47,3,191,3,,,,,448.4414390830002,449.43525854100017,449.43525854100017,449.43525854100017,449.43525854100017,449.43525854100017,450.42488812500005,450.42488812500005,z,1,0.3469272499996805,None,1,001,2023-10-14_20h03.11.899,Sequence_Learning,2023.1.3,None,
-50,x,0,0,0,0,48,0,192,0,,,,,450.7822160830001,451.769896541,451.769896541,451.769896541,451.769896541,451.77895316600006,452.7748581660003,452.7748581660003,x,1,0.2865988749999815,None,1,001,2023-10-14_20h03.11.899,Sequence_Learning,2023.1.3,None,
150,v,0,0,0,0,48,1,193,1,,,,,453.07400770799995,454.06883766600004,454.06883766600004,454.06883766600004,454.06883766600004,454.06883766600004,455.0665448330001,455.0665448330001,v,1,0.24462520899987794,None,1,001,2023-10-14_20h03.11.899,Sequence_Learning,2023.1.3,None,
50,c,0,0,0,0,48,2,194,2,,,,,455.3249365830002,456.32511875,456.32511875,456.32511875,456.32511875,456.34239016599986,457.3083567910003,457.3083567910003,c,1,0.4754995419998522,None,1,001,2023-10-14_20h03.11.899,Sequence_Learning,2023.1.3,None,
-150,z,0,0,0,0,48,3,195,3,,,,,457.7994090410002,458.7864173749999,458.7864173749999,458.7864173749999,458.7864173749999,458.79543212499993,459.79164712500005,459.79164712500005,z,1,0.2766734589999942,None,1,001,2023-10-14_20h03.11.899,Sequence_Learning,2023.1.3,None,
-50,x,0,0,0,0,49,0,196,0,,,,,460.0829642910003,461.0699923750003,461.0699923750003,461.0699923750003,461.0699923750003,461.07944045800014,462.0751462080002,462.0751462080002,x,1,0.5017474579999543,None,1,001,2023-10-14_20h03.11.899,Sequence_Learning,2023.1.3,None,
150,v,0,0,0,0,49,1,197,1,,,,,462.59184404100006,463.592011875,463.592011875,463.592011875,463.592011875,463.6091407500003,464.57520941600023,464.57520941600023,v,1,0.23363062499993248,None,1,001,2023-10-14_20h03.11.899,Sequence_Learning,2023.1.3,None,
50,c,0,0,0,0,49,2,198,2,,,,,464.8252441660002,465.81919625,465.81919625,465.81919625,465.81919625,465.81919625,466.81676966600025,466.81676966600025,c,1,0.26738791699972353,None,1,001,2023-10-14_20h03.11.899,Sequence_Learning,2023.1.3,None,
-150,z,0,0,0,0,49,3,199,3,,,,,467.0999231660003,468.087442,468.087442,468.087442,468.087442,468.09668375,469.0919912080003,469.0919912080003,z,1,0.255690833999779,None,1,001,2023-10-14_20h03.11.899,Sequence_Learning,2023.1.3,None,
150,v,0,0,0,0,,,,,0,0,0,1,469.36154533299987,470.35437475000026,470.35437475000026,470.35437475000026,470.35437475000026,470.36383408300026,471.3422596250002,471.3422596250002,v,1,0.4444943339999554,None,1,001,2023-10-14_20h03.11.899,Sequence_Learning,2023.1.3,None,
50,c,0,0,0,0,,,,,0,1,1,2,471.8003657080003,472.78699558300013,472.78699558300013,472.78699558300013,472.78699558300013,472.7960524580003,473.79216124999994,473.79216124999994,c,1,0.394997124999918,None,1,001,2023-10-14_20h03.11.899,Sequence_Learning,2023.1.3,None,
-50,x,0,0,0,0,,,,,0,2,2,0,474.200318875,475.1877005000001,475.1877005000001,475.1877005000001,475.1877005000001,475.19680204099996,476.19229458300015,476.19229458300015,c,0,0.48363554199977443,None,1,001,2023-10-14_20h03.11.899,Sequence_Learning,2023.1.3,None,
50,c,0,0,0,0,,,,,0,3,3,2,476.6922030410001,477.68660745800025,477.68660745800025,477.68660745800025,477.68660745800025,477.68660745800025,478.6837195000003,478.6837195000003,c,1,0.4293046249999861,None,1,001,2023-10-14_20h03.11.899,Sequence_Learning,2023.1.3,None,
50,c,0,0,0,0,,,,,1,0,4,2,479.12564595799995,480.12591387500015,480.12591387500015,480.12591387500015,480.12591387500015,480.1430023749999,481.10899579099987,481.10899579099987,c,1,0.47821133300021756,None,1,001,2023-10-14_20h03.11.899,Sequence_Learning,2023.1.3,None,
50,c,0,0,0,0,,,,,1,1,5,2,481.6006832500002,482.58775187499987,482.58775187499987,482.58775187499987,482.58775187499987,482.5971998750001,483.59250466599997,483.59250466599997,c,1,0.38354658400021435,None,1,001,2023-10-14_20h03.11.899,Sequence_Learning,2023.1.3,None,
50,c,0,0,0,0,,,,,1,2,6,2,483.9841004580003,484.9711832500002,484.9711832500002,484.9711832500002,484.9711832500002,484.98050679100015,485.97584374999997,485.97584374999997,c,1,0.3606629169998996,None,1,001,2023-10-14_20h03.11.899,Sequence_Learning,2023.1.3,None,
-150,z,0,0,0,0,,,,,1,3,7,3,486.3501611249999,487.337236375,487.337236375,487.337236375,487.337236375,487.346279333,488.34248875000003,488.34248875000003,z,1,0.3552385829998457,None,1,001,2023-10-14_20h03.11.899,Sequence_Learning,2023.1.3,None,
-150,z,0,0,0,0,,,,,2,0,8,3,488.7091794160001,489.702893958,489.702893958,489.702893958,489.702893958,489.702893958,490.69263520799996,490.69263520799996,z,1,0.39779937499997686,None,1,001,2023-10-14_20h03.11.899,Sequence_Learning,2023.1.3,None,
-50,x,0,0,0,0,,,,,2,1,9,0,491.1004618750003,492.0877157079999,492.0877157079999,492.0877157079999,492.0877157079999,492.0966707910002,493.09272450000026,493.09272450000026,x,1,0.5496667500001422,None,1,001,2023-10-14_20h03.11.899,Sequence_Learning,2023.1.3,None,
150,v,0,0,0,0,,,,,2,2,10,1,493.65014279100023,494.637644208,494.637644208,494.637644208,494.637644208,494.6465504580001,495.6427520000002,495.6427520000002,v,1,0.4688527510002132,None,1,001,2023-10-14_20h03.11.899,Sequence_Learning,2023.1.3,None,
50,c,0,0,0,0,,,,,2,3,11,2,496.126110833,497.12046041600024,497.12046041600024,497.12046041600024,497.12046041600024,497.12046041600024,498.11764862500013,498.11764862500013,c,1,0.5842002499998671,None,1,001,2023-10-14_20h03.11.899,Sequence_Learning,2023.1.3,None,
-150,z,0,0,0,0,,,,,3,0,12,3,498.7170742500002,499.7041077500003,499.7041077500003,499.7041077500003,499.7041077500003,499.7128899160002,500.709533833,500.709533833,z,1,0.4664937090001331,None,1,001,2023-10-14_20h03.11.899,Sequence_Learning,2023.1.3,None,
150,v,0,0,0,0,,,,,3,1,13,1,501.18387891600014,502.1718025,502.1718025,502.1718025,502.1718025,502.180872291,503.1762748330002,503.1762748330002,v,1,0.4706864590002624,None,1,001,2023-10-14_20h03.11.899,Sequence_Learning,2023.1.3,None,
-50,x,0,0,0,0,,,,,3,2,14,0,503.659253625,504.65415791600026,504.65415791600026,504.65415791600026,504.65415791600026,504.65415791600026,505.65179050000006,505.65179050000006,x,1,0.8194270419999157,None,1,001,2023-10-14_20h03.11.899,Sequence_Learning,2023.1.3,None,
-50,x,0,0,0,0,,,,,3,3,15,0,506.48450329100024,507.47130241600007,507.47130241600007,507.47130241600007,507.47130241600007,507.480234916,508.46794016600006,508.46794016600006,x,1,0.5920214590000796,None,1,001,2023-10-14_20h03.11.899,Sequence_Learning,2023.1.3,None,
-150,z,0,0,0,0,,,,,4,0,16,3,509.076437875,510.0706879160002,510.0706879160002,510.0706879160002,510.0706879160002,510.0706879160002,511.06793508300007,511.06793508300007,z,1,0.49824679199991806,None,1,001,2023-10-14_20h03.11.899,Sequence_Learning,2023.1.3,None,
-50,x,0,0,0,0,,,,,4,1,17,0,511.57563041599997,512.5704573749999,512.5704573749999,512.5704573749999,512.5704573749999,512.5704573749999,513.5682980000001,513.5682980000001,x,1,0.4029189170000791,None,1,001,2023-10-14_20h03.11.899,Sequence_Learning,2023.1.3,None,
-50,x,0,0,0,0,,,,,4,2,18,0,513.9848892079999,514.971357208,514.971357208,514.971357208,514.971357208,514.9803028750002,515.9767487909999,515.9767487909999,x,1,0.46789112499982366,None,1,001,2023-10-14_20h03.11.899,Sequence_Learning,2023.1.3,None,
-150,z,0,0,0,0,,,,,4,3,19,3,516.4600625830003,517.4603068330002,517.4603068330002,517.4603068330002,517.4603068330002,517.477404708,518.4433986250001,518.4433986250001,z,1,0.5354831669997111,None,1,001,2023-10-14_20h03.11.899,Sequence_Learning,2023.1.3,None,
150,v,0,0,0,0,,,,,5,0,20,1,518.9934297079999,519.9936953330002,519.9936953330002,519.9936953330002,519.9936953330002,520.0108001250001,520.9767798329999,520.9767798329999,v,1,0.4779524579998906,None,1,001,2023-10-14_20h03.11.899,Sequence_Learning,2023.1.3,None,
150,v,0,0,0,0,,,,,5,1,21,1,521.468404833,522.4551174580001,522.4551174580001,522.4551174580001,522.4551174580001,522.464186875,523.460245791,523.460245791,v,1,0.5672972919996937,None,1,001,2023-10-14_20h03.11.899,Sequence_Learning,2023.1.3,None,
50,c,0,0,0,0,,,,,5,2,22,2,524.043475166,525.0375207910001,525.0375207910001,525.0375207910001,525.0375207910001,525.0375207910001,526.0350000000003,526.0350000000003,c,1,0.517262626000047,None,1,001,2023-10-14_20h03.11.899,Sequence_Learning,2023.1.3,None,
50,c,0,0,0,0,,,,,5,3,23,2,526.5682405000002,527.5550883750002,527.5550883750002,527.5550883750002,527.5550883750002,527.5644460829999,528.5603716660003,528.5603716660003,c,1,0.3711243339998873,None,1,001,2023-10-14_20h03.11.899,Sequence_Learning,2023.1.3,None,
-50,x,0,0,0,0,,,,,6,0,24,0,528.9436980410001,529.9381135409999,529.9381135409999,529.9381135409999,529.9381135409999,529.9381135409999,530.9352764579999,530.9352764579999,x,1,0.6495046669997464,None,1,001,2023-10-14_20h03.11.899,Sequence_Learning,2023.1.3,None,
50,c,0,0,0,0,,,,,6,1,25,2,531.6010634160002,532.5892147909999,532.5892147909999,532.5892147909999,532.5892147909999,532.5988441250001,533.5937484579999,533.5937484579999,v,0,0.4594150839998292,None,1,001,2023-10-14_20h03.11.899,Sequence_Learning,2023.1.3,None,
150,v,0,0,0,0,,,,,6,2,26,1,534.0686244160001,535.055263708,535.055263708,535.055263708,535.055263708,535.0642296250003,536.0605503330003,536.0605503330003,v,1,0.544018708999829,None,1,001,2023-10-14_20h03.11.899,Sequence_Learning,2023.1.3,None,
-150,z,0,0,0,0,,,,,6,3,27,3,536.6180770830001,537.6054978750003,537.6054978750003,537.6054978750003,537.6054978750003,537.614556166,538.6019133330001,538.6019133330001,z,1,0.5169475009997768,None,1,001,2023-10-14_20h03.11.899,Sequence_Learning,2023.1.3,None,
-50,x,0,0,0,0,,,,,7,0,28,0,539.1357375830003,540.1227409160001,540.1227409160001,540.1227409160001,540.1227409160001,540.1319265000002,541.1274184580002,541.1274184580002,x,1,0.5063437500002692,None,1,001,2023-10-14_20h03.11.899,Sequence_Learning,2023.1.3,None,
50,c,0,0,0,0,,,,,7,1,29,2,541.6440265000001,542.6442726250002,542.6442726250002,542.6442726250002,542.6442726250002,542.6614884579999,543.6273996660002,543.6273996660002,c,1,0.7710738760001732,None,1,001,2023-10-14_20h03.11.899,Sequence_Learning,2023.1.3,None,
-50,x,0,0,0,0,,,,,7,2,30,0,544.4108296250001,545.411037291,545.411037291,545.411037291,545.411037291,545.4281619160001,546.394222166,546.394222166,x,1,0.543509874999927,None,1,001,2023-10-14_20h03.11.899,Sequence_Learning,2023.1.3,None,
-50,x,0,0,0,0,,,,,7,3,31,0,546.9519232500002,547.9390817910003,547.9390817910003,547.9390817910003,547.9390817910003,547.9486002080002,548.9442830830003,548.9442830830003,x,1,0.6586800009995386,None,1,001,2023-10-14_20h03.11.899,Sequence_Learning,2023.1.3,None,
-150,z,0,0,0,0,,,,,8,0,32,3,549.619074708,550.6056954159999,550.6056954159999,550.6056954159999,550.6056954159999,550.614531791,551.6109813749999,551.6109813749999,z,1,0.6185379589996955,None,1,001,2023-10-14_20h03.11.899,Sequence_Learning,2023.1.3,None,
50,c,0,0,0,0,,,,,8,1,33,2,552.244308583,553.2446380410001,553.2446380410001,553.2446380410001,553.2446380410001,553.26167725,554.2358604579999,554.2358604579999,c,1,0.6107912090001264,None,1,001,2023-10-14_20h03.11.899,Sequence_Learning,2023.1.3,None,
-50,x,0,0,0,0,,,,,8,2,34,0,554.8610829580002,555.84668925,555.84668925,555.84668925,555.84668925,555.8617291250002,556.8530875000001,556.8530875000001,x,1,0.4710227919999852,None,1,001,2023-10-14_20h03.11.899,Sequence_Learning,2023.1.3,None,
-150,z,0,0,0,0,,,,,8,3,35,3,557.3360896660001,558.3226355410002,558.3226355410002,558.3226355410002,558.3226355410002,558.3315306660002,559.3278568330002,559.3278568330002,z,1,0.4905463330001112,None,1,001,2023-10-14_20h03.11.899,Sequence_Learning,2023.1.3,None,
-150,z,0,0,0,0,,,,,9,0,36,3,559.8346674160002,560.8233157909999,560.8233157909999,560.8233157909999,560.8233157909999,560.8328110410002,561.8279862909999,561.8279862909999,z,1,0.5002282919999743,None,1,001,2023-10-14_20h03.11.899,Sequence_Learning,2023.1.3,None,
-50,x,0,0,0,0,,,,,9,1,37,0,562.336235791,563.323360416,563.323360416,563.323360416,563.323360416,563.3324228330002,564.328012208,564.328012208,x,1,0.5004756669995913,None,1,001,2023-10-14_20h03.11.899,Sequence_Learning,2023.1.3,None,
-150,z,0,0,0,0,,,,,9,2,38,3,564.8445995000002,565.8383614160002,565.8383614160002,565.8383614160002,565.8383614160002,565.8383614160002,566.8363010410003,566.8363010410003,z,1,0.5162315839997973,None,1,001,2023-10-14_20h03.11.899,Sequence_Learning,2023.1.3,None,
150,v,0,0,0,0,,,,,9,3,39,1,567.369569041,568.3568197079999,568.3568197079999,568.3568197079999,568.3568197079999,568.3661535000001,569.3614912500002,569.3614912500002,v,1,0.7375724170001376,None,1,001,2023-10-14_20h03.11.899,Sequence_Learning,2023.1.3,None,
150,v,0,0,0,0,,,,,10,0,40,1,570.1115277910003,571.1117469159999,571.1117469159999,571.1117469159999,571.1117469159999,571.1289119580001,572.0949255830001,572.0949255830001,v,1,0.6046547089999876,None,1,001,2023-10-14_20h03.11.899,Sequence_Learning,2023.1.3,None,
-50,x,0,0,0,0,,,,,10,1,41,0,572.7116191660002,573.7118087500003,573.7118087500003,573.7118087500003,573.7118087500003,573.7289228330001,574.695016791,574.695016791,x,1,0.6406005829999231,None,1,001,2023-10-14_20h03.11.899,Sequence_Learning,2023.1.3,None,
50,c,0,0,0,0,,,,,10,2,42,2,575.3520815830002,576.3394866660001,576.3394866660001,576.3394866660001,576.3394866660001,576.3483566250002,577.3444413749999,577.3444413749999,c,1,0.3513538749998588,None,1,001,2023-10-14_20h03.11.899,Sequence_Learning,2023.1.3,None,
150,v,0,0,0,0,,,,,10,3,43,1,577.7118122910001,578.7051624999999,578.7051624999999,578.7051624999999,578.7051624999999,578.7051624999999,579.703157375,579.703157375,v,1,0.5915105839999342,None,1,001,2023-10-14_20h03.11.899,Sequence_Learning,2023.1.3,None,
150,v,0,0,0,0,,,,,11,0,44,1,580.3028799580002,581.2901150410003,581.2901150410003,581.2901150410003,581.2901150410003,581.2990132499999,582.2951671660003,582.2951671660003,v,1,0.4744249169998511,None,1,001,2023-10-14_20h03.11.899,Sequence_Learning,2023.1.3,None,
150,v,0,0,0,0,,,,,11,1,45,1,582.785171041,583.7733491250001,583.7733491250001,583.7733491250001,583.7733491250001,583.7823575410002,584.778590291,584.778590291,v,1,0.37565487500023664,None,1,001,2023-10-14_20h03.11.899,Sequence_Learning,2023.1.3,None,
150,v,0,0,0,0,,,,,11,2,46,1,585.1700259160002,586.1570295000001,586.1570295000001,586.1570295000001,586.1570295000001,586.1660656660001,587.1620385000001,587.1620385000001,v,1,0.37552079200031585,None,1,001,2023-10-14_20h03.11.899,Sequence_Learning,2023.1.3,None,
-150,z,0,0,0,0,,,,,11,3,47,3,587.5532562080002,588.5401484580002,588.5401484580002,588.5401484580002,588.5401484580002,588.5491285410003,589.5454123750001,589.5454123750001,z,1,0.40277970800025287,None,1,001,2023-10-14_20h03.11.899,Sequence_Learning,2023.1.3,None,
-50,x,0,0,0,0,,,,,12,0,48,0,589.9620867910003,590.9560270410002,590.9560270410002,590.9560270410002,590.9560270410002,590.9560270410002,591.9534739999999,591.9534739999999,x,1,0.5187538750001295,None,1,001,2023-10-14_20h03.11.899,Sequence_Learning,2023.1.3,None,
50,c,0,0,0,0,,,,,12,1,49,2,592.4862039160002,593.4740497910002,593.4740497910002,593.4740497910002,593.4740497910002,593.4834527080002,594.478884875,594.478884875,c,1,0.4445978339999783,None,1,001,2023-10-14_20h03.11.899,Sequence_Learning,2023.1.3,None,
150,v,0,0,0,0,,,,,12,2,50,1,594.9362285830002,595.924232458,595.924232458,595.924232458,595.924232458,595.9333234999999,596.92898375,596.92898375,v,1,0.4294021669998074,None,1,001,2023-10-14_20h03.11.899,Sequence_Learning,2023.1.3,None,
50,c,0,0,0,0,,,,,12,3,51,2,597.3703153750002,598.3570125830001,598.3570125830001,598.3570125830001,598.3570125830001,598.365789291,599.362414708,599.362414708,c,1,0.3585091669997382,None,1,001,2023-10-14_20h03.11.899,Sequence_Learning,2023.1.3,None,
-50,x,0,0,0,0,,,,,13,0,52,0,599.7358260830001,600.7244867909999,600.7244867909999,600.7244867909999,600.7244867909999,600.733879166,601.728333,601.728333,x,1,0.638058541999726,None,1,001,2023-10-14_20h03.11.899,Sequence_Learning,2023.1.3,None,
150,v,0,0,0,0,,,,,13,1,53,1,602.3791085830003,603.3728927080001,603.3728927080001,603.3728927080001,603.3728927080001,603.3728927080001,604.3624492910003,604.3624492910003,v,1,0.517815624999912,None,1,001,2023-10-14_20h03.11.899,Sequence_Learning,2023.1.3,None,
150,v,0,0,0,0,,,,,13,2,54,1,604.8958124999999,605.8897105000001,605.8897105000001,605.8897105000001,605.8897105000001,605.8897105000001,606.887343416,606.887343416,v,1,0.5793264170001748,None,1,001,2023-10-14_20h03.11.899,Sequence_Learning,2023.1.3,None,
50,c,0,0,0,0,,,,,13,3,55,2,607.479223583,608.479417,608.479417,608.479417,608.479417,608.4965925410002,609.4707843750002,609.4707843750002,c,1,0.4786114170001383,None,1,001,2023-10-14_20h03.11.899,Sequence_Learning,2023.1.3,None,
50,c,0,0,0,0,,,,,14,0,56,2,609.9626564160003,610.9566264160003,610.9566264160003,610.9566264160003,610.9566264160003,610.9566264160003,611.9460724579999,611.9460724579999,c,1,0.4284320009996918,None,1,001,2023-10-14_20h03.11.899,Sequence_Learning,2023.1.3,None,
150,v,0,0,0,0,,,,,14,1,57,1,612.388334833,613.3797218750001,613.3797218750001,613.3797218750001,613.3797218750001,613.3893282080003,614.3794238330001,614.3794238330001,v,1,0.5667790420002348,None,1,001,2023-10-14_20h03.11.899,Sequence_Learning,2023.1.3,None,
-50,x,0,0,0,0,,,,,14,2,58,0,614.954047875,615.941040708,615.941040708,615.941040708,615.941040708,615.9504886660002,616.946182875,616.946182875,x,1,0.8065375419996599,None,1,001,2023-10-14_20h03.11.899,Sequence_Learning,2023.1.3,None,
150,v,0,0,0,0,,,,,14,3,59,1,617.7628642499999,618.7567113330001,618.7567113330001,618.7567113330001,618.7567113330001,618.7567113330001,619.7462649160002,619.7462649160002,v,1,0.47955291700009184,None,1,001,2023-10-14_20h03.11.899,Sequence_Learning,2023.1.3,None,
150,v,0,0,0,0,,,,,15,0,60,1,620.2373815830001,621.2244234160003,621.2244234160003,621.2244234160003,621.2244234160003,621.2333478330002,622.2288169160001,622.2288169160001,v,1,0.5866584169998532,None,1,001,2023-10-14_20h03.11.899,Sequence_Learning,2023.1.3,None,
150,v,0,0,0,0,,,,,15,1,61,1,622.8296772910003,623.8234622909999,623.8234622909999,623.8234622909999,623.8234622909999,623.8234622909999,624.8212226660003,624.8212226660003,v,1,0.6106642919999103,None,1,001,2023-10-14_20h03.11.899,Sequence_Learning,2023.1.3,None,
150,v,0,0,0,0,,,,,15,2,62,1,625.4463690000002,626.4466850829999,626.4466850829999,626.4466850829999,626.4466850829999,626.46376775,627.4298360410003,627.4298360410003,v,1,0.46429562599996643,None,1,001,2023-10-14_20h03.11.899,Sequence_Learning,2023.1.3,None,
50,c,0,0,0,0,,,,,15,3,63,2,627.903989125,628.891362541,628.891362541,628.891362541,628.891362541,628.9002539160001,629.8964867909999,629.8964867909999,c,1,0.5097139169997718,None,1,001,2023-10-14_20h03.11.899,Sequence_Learning,2023.1.3,None,
50,c,0,0,0,0,,,,,16,0,64,2,630.421801,631.4084084159999,631.4084084159999,631.4084084159999,631.4084084159999,631.4174325829999,632.41327275,632.41327275,c,1,0.4386830840003313,None,1,001,2023-10-14_20h03.11.899,Sequence_Learning,2023.1.3,None,
-50,x,0,0,0,0,,,,,16,1,65,0,632.863228833,633.8571474159999,633.8571474159999,633.8571474159999,633.8571474159999,633.8571474159999,634.8549656660002,634.8549656660002,x,1,0.5609220000001187,None,1,001,2023-10-14_20h03.11.899,Sequence_Learning,2023.1.3,None,
-50,x,0,0,0,0,,,,,16,2,66,0,635.4300346660002,636.430184458,636.430184458,636.430184458,636.430184458,636.4473940000003,637.4134654580002,637.4134654580002,x,1,0.4206547500002671,None,1,001,2023-10-14_20h03.11.899,Sequence_Learning,2023.1.3,None,
150,v,0,0,0,0,,,,,16,3,67,1,637.8467867499999,638.8405984999999,638.8405984999999,638.8405984999999,638.8405984999999,638.8405984999999,639.838357958,639.838357958,v,1,0.45415795899998557,None,1,001,2023-10-14_20h03.11.899,Sequence_Learning,2023.1.3,None,
50,c,0,0,0,0,,,,,17,0,68,2,640.3043227080002,641.2915414160002,641.2915414160002,641.2915414160002,641.2915414160002,641.3004436250003,642.2968375,642.2968375,c,1,0.41329354199979207,None,1,001,2023-10-14_20h03.11.899,Sequence_Learning,2023.1.3,None,
50,c,0,0,0,0,,,,,17,1,69,2,642.7217903750002,643.7089456660001,643.7089456660001,643.7089456660001,643.7089456660001,643.718398166,644.7126410830001,644.7126410830001,c,1,0.41886266700021224,None,1,001,2023-10-14_20h03.11.899,Sequence_Learning,2023.1.3,None,
-150,z,0,0,0,0,,,,,17,2,70,3,645.1469403330002,646.1312102500001,646.1312102500001,646.1312102500001,646.1312102500001,646.1408432910002,647.130316708,647.130316708,z,1,0.5516982919998554,None,1,001,2023-10-14_20h03.11.899,Sequence_Learning,2023.1.3,None,
150,v,0,0,0,0,,,,,17,3,71,1,647.6969493750003,648.690863458,648.690863458,648.690863458,648.690863458,648.690863458,649.688895625,649.688895625,v,1,0.4769168749999153,None,1,001,2023-10-14_20h03.11.899,Sequence_Learning,2023.1.3,None,
-50,x,0,0,0,0,,,,,18,0,72,0,650.1804185410001,651.1647036250001,651.1647036250001,651.1647036250001,651.1647036250001,651.1740453329999,652.1638129580001,652.1638129580001,x,1,0.4665312500001164,None,1,001,2023-10-14_20h03.11.899,Sequence_Learning,2023.1.3,None,
-150,z,0,0,0,0,,,,,18,1,73,3,652.6379806660002,653.6260080000002,653.6260080000002,653.6260080000002,653.6260080000002,653.6351050000003,654.6221965,654.6221965,z,1,0.5354557499999828,None,1,001,2023-10-14_20h03.11.899,Sequence_Learning,2023.1.3,None,
-50,x,0,0,0,0,,,,,18,2,74,0,655.1722163750001,656.1650494999999,656.1650494999999,656.1650494999999,656.1650494999999,656.1746294580003,657.1639638330003,657.1639638330003,x,1,0.5076935419997426,None,1,001,2023-10-14_20h03.11.899,Sequence_Learning,2023.1.3,None,
50,c,0,0,0,0,,,,,18,3,75,2,657.6882317909999,658.6761032499999,658.6761032499999,658.6761032499999,658.6761032499999,658.6852222910002,659.680679,659.680679,c,1,0.5764359999998305,None,1,001,2023-10-14_20h03.11.899,Sequence_Learning,2023.1.3,None,
50,c,0,0,0,0,,,,,19,0,76,2,660.2721475409999,661.2594272910001,661.2594272910001,661.2594272910001,661.2594272910001,661.2684411250002,662.2641209580001,662.2641209580001,c,1,0.44704300000012154,None,1,001,2023-10-14_20h03.11.899,Sequence_Learning,2023.1.3,None,
50,c,0,0,0,0,,,,,19,1,77,2,662.722327208,663.709672166,663.709672166,663.709672166,663.709672166,663.719120875,664.714134583,664.714134583,c,1,0.3666719580000972,None,1,001,2023-10-14_20h03.11.899,Sequence_Learning,2023.1.3,None,
150,v,0,0,0,0,,,,,19,2,78,1,665.0883115410002,666.0755367080001,666.0755367080001,666.0755367080001,666.0755367080001,666.0844673330002,667.0809221250001,667.0809221250001,v,1,0.4721690420001323,None,1,001,2023-10-14_20h03.11.899,Sequence_Learning,2023.1.3,None,
150,v,0,0,0,0,,,,,19,3,79,1,667.5642412500001,668.5583388330001,668.5583388330001,668.5583388330001,668.5583388330001,668.5583388330001,669.5556926250001,669.5556926250001,v,1,0.4028613340001357,None,1,001,2023-10-14_20h03.11.899,Sequence_Learning,2023.1.3,None,
-50,x,0,0,0,0,,,,,20,0,80,0,669.972018083,670.9595945000001,670.9595945000001,670.9595945000001,670.9595945000001,670.9686402500001,671.9643492079999,671.9643492079999,x,1,0.38568795899982433,None,1,001,2023-10-14_20h03.11.899,Sequence_Learning,2023.1.3,None,
150,v,0,0,0,0,,,,,20,1,81,1,672.3643205000003,673.350243458,673.350243458,673.350243458,673.350243458,673.364984666,674.3477874999999,674.3477874999999,v,1,0.4350947090001682,None,1,001,2023-10-14_20h03.11.899,Sequence_Learning,2023.1.3,None,
50,c,0,0,0,0,,,,,20,2,82,2,674.7977659580001,675.7981582500001,675.7981582500001,675.7981582500001,675.7981582500001,675.8150585829999,676.781209666,676.781209666,c,1,0.3762410839999575,None,1,001,2023-10-14_20h03.11.899,Sequence_Learning,2023.1.3,None,
150,v,0,0,0,0,,,,,20,3,83,1,677.1728133750003,678.1668075830003,678.1668075830003,678.1668075830003,678.1668075830003,678.1668075830003,679.1637801659999,679.1637801659999,v,1,0.48221237600000677,None,1,001,2023-10-14_20h03.11.899,Sequence_Learning,2023.1.3,None,
-50,x,0,0,0,0,,,,,21,0,84,0,679.6561400830001,680.6424215000002,680.6424215000002,680.6424215000002,680.6424215000002,680.6513104159999,681.6479494579999,681.6479494579999,x,1,0.4553853329998674,None,1,001,2023-10-14_20h03.11.899,Sequence_Learning,2023.1.3,None,
50,c,0,0,0,0,,,,,21,1,85,2,682.1147805410001,683.108030375,683.108030375,683.108030375,683.108030375,683.108030375,684.1061612080002,684.1061612080002,c,1,0.5297782079996978,None,1,001,2023-10-14_20h03.11.899,Sequence_Learning,2023.1.3,None,
-50,x,0,0,0,0,,,,,21,2,86,0,684.6480220409999,685.6417403330001,685.6417403330001,685.6417403330001,685.6417403330001,685.6417403330001,686.6395680410001,686.6395680410001,x,1,0.8198834589998114,None,1,001,2023-10-14_20h03.11.899,Sequence_Learning,2023.1.3,None,
-50,x,0,0,0,0,,,,,21,3,87,0,687.4721997500001,688.4599914579999,688.4599914579999,688.4599914579999,688.4599914579999,688.4694016660001,689.4567898750001,689.4567898750001,x,1,0.4131995839998126,None,1,001,2023-10-14_20h03.11.899,Sequence_Learning,2023.1.3,None,
150,v,0,0,0,0,,,,,22,0,88,1,689.8815259580001,690.8658828749999,690.8658828749999,690.8658828749999,690.8658828749999,690.8753845410001,691.8733990410001,691.8733990410001,v,1,0.46750220900003114,None,1,001,2023-10-14_20h03.11.899,Sequence_Learning,2023.1.3,None,
50,c,0,0,0,0,,,,,22,1,89,2,692.355577416,693.3431082500001,693.3431082500001,693.3431082500001,693.3431082500001,693.352548583,694.3482772080001,694.3482772080001,c,1,0.4875348330001543,None,1,001,2023-10-14_20h03.11.899,Sequence_Learning,2023.1.3,None,
150,v,0,0,0,0,,,,,22,2,90,1,694.847712791,695.84167725,695.84167725,695.84167725,695.84167725,695.84167725,696.839583125,696.839583125,v,1,0.4097148340001695,None,1,001,2023-10-14_20h03.11.899,Sequence_Learning,2023.1.3,None,
50,c,0,0,0,0,,,,,22,3,91,2,697.2650585830002,698.2494797499999,698.2494797499999,698.2494797499999,698.2494797499999,698.259341166,699.2483573750001,699.2483573750001,c,1,0.4018677919998481,None,1,001,2023-10-14_20h03.11.899,Sequence_Learning,2023.1.3,None,
-150,z,0,0,0,0,,,,,23,0,92,3,699.6651503749999,700.6496043750003,700.6496043750003,700.6496043750003,700.6496043750003,700.659467083,701.6484570830003,701.6484570830003,z,1,0.600337374999981,None,1,001,2023-10-14_20h03.11.899,Sequence_Learning,2023.1.3,None,
-150,z,0,0,0,0,,,,,23,1,93,3,702.256193666,703.2440255410002,703.2440255410002,703.2440255410002,703.2440255410002,703.2535345830001,704.248588083,704.248588083,z,1,0.4877392090002104,None,1,001,2023-10-14_20h03.11.899,Sequence_Learning,2023.1.3,None,
-150,z,0,0,0,0,,,,,23,2,94,3,704.7485530829999,705.748784208,705.748784208,705.748784208,705.748784208,705.7659182500001,706.7400223750001,706.7400223750001,z,1,0.4253921670001546,None,1,001,2023-10-14_20h03.11.899,Sequence_Learning,2023.1.3,None,
150,v,0,0,0,0,,,,,23,3,95,1,707.1731100830002,708.1612529580002,708.1612529580002,708.1612529580002,708.1612529580002,708.1706346660003,709.1647748750001,709.1647748750001,v,1,0.485741875000258,None,1,001,2023-10-14_20h03.11.899,Sequence_Learning,2023.1.3,None,
50,c,0,0,0,0,,,,,24,0,96,2,709.66549025,710.6507339580003,710.6507339580003,710.6507339580003,710.6507339580003,710.666051833,711.6568573750001,711.6568573750001,c,1,0.4811209589997816,None,1,001,2023-10-14_20h03.11.899,Sequence_Learning,2023.1.3,None,
-150,z,0,0,0,0,,,,,24,1,97,3,712.1487347910002,713.1330069999999,713.1330069999999,713.1330069999999,713.1330069999999,713.1426153329999,714.132190458,714.132190458,z,1,0.4191204589997142,None,1,001,2023-10-14_20h03.11.899,Sequence_Learning,2023.1.3,None,
-150,z,0,0,0,0,,,,,24,2,98,3,714.5656315410001,715.5507762500001,715.5507762500001,715.5507762500001,715.5507762500001,715.5662808330003,716.5489292910001,716.5489292910001,z,1,0.4390517090000685,None,1,001,2023-10-14_20h03.11.899,Sequence_Learning,2023.1.3,None,
-150,z,0,0,0,0,,,,,24,3,99,3,716.998886291,717.9991112910002,717.9991112910002,717.9991112910002,717.9991112910002,718.0162260410002,718.9823310410002,718.9823310410002,z,1,0.44596983400015233,None,1,001,2023-10-14_20h03.11.899,Sequence_Learning,2023.1.3,None,
50,c,0,0,0,0,,,,,25,0,100,2,719.440909083,720.4491202080003,720.4491202080003,720.4491202080003,720.4491202080003,720.4663458750001,721.4324126659999,721.4324126659999,c,1,0.4613322089999201,None,1,001,2023-10-14_20h03.11.899,Sequence_Learning,2023.1.3,None,
-50,x,0,0,0,0,,,,,25,1,101,0,721.9067903330001,722.89409725,722.89409725,722.89409725,722.89409725,722.9034132910001,723.8990595,723.8990595,x,1,0.5128659590000098,None,1,001,2023-10-14_20h03.11.899,Sequence_Learning,2023.1.3,None,
-150,z,0,0,0,0,,,,,25,2,102,3,724.4233785410001,725.4106849160003,725.4106849160003,725.4106849160003,725.4106849160003,725.4197232910001,726.4157668329999,726.4157668329999,z,1,0.6598184590002347,None,1,001,2023-10-14_20h03.11.899,Sequence_Learning,2023.1.3,None,
150,v,0,0,0,0,,,,,25,3,103,1,727.0905355,728.0778645830001,728.0778645830001,728.0778645830001,728.0778645830001,728.0875894579999,729.082532166,729.082532166,v,1,0.5417331670000749,None,1,001,2023-10-14_20h03.11.899,Sequence_Learning,2023.1.3,None,
50,c,0,0,0,0,,,,,26,0,104,2,729.6407872909999,730.6285002909999,730.6285002909999,730.6285002909999,730.6285002909999,730.637992208,731.6325752080002,731.6325752080002,c,1,0.5488074589998178,None,1,001,2023-10-14_20h03.11.899,Sequence_Learning,2023.1.3,None,
-150,z,0,0,0,0,,,,,26,1,105,3,732.1901834579999,733.1780921250001,733.1780921250001,733.1780921250001,733.1780921250001,733.187502541,734.1818557910001,734.1818557910001,z,1,0.5100437089995467,None,1,001,2023-10-14_20h03.11.899,Sequence_Learning,2023.1.3,None,
-150,z,0,0,0,0,,,,,26,2,106,3,734.7076392080003,735.694757791,735.694757791,735.694757791,735.694757791,735.703750875,736.691182041,736.691182041,z,1,0.5815414170001532,None,1,001,2023-10-14_20h03.11.899,Sequence_Learning,2023.1.3,None,
-50,x,0,0,0,0,,,,,26,3,107,0,737.282787958,738.2831378330002,738.2831378330002,738.2831378330002,738.2831378330002,738.3001506250002,739.266118041,739.266118041,x,1,0.5228785009999228,None,1,001,2023-10-14_20h03.11.899,Sequence_Learning,2023.1.3,None,
50,c,0,0,0,0,,,,,27,0,108,2,739.7995308330001,740.7937722910001,740.7937722910001,740.7937722910001,740.7937722910001,740.7937722910001,741.7818937080001,741.7818937080001,c,1,0.40521674999990864,None,1,001,2023-10-14_20h03.11.899,Sequence_Learning,2023.1.3,None,
150,v,0,0,0,0,,,,,27,1,109,1,742.199695708,743.1997934579999,743.1997934579999,743.1997934579999,743.1997934579999,743.21688425,744.1916847500001,744.1916847500001,v,1,0.4436780829996678,None,1,001,2023-10-14_20h03.11.899,Sequence_Learning,2023.1.3,None,
-150,z,0,0,0,0,,,,,27,2,110,3,744.649599541,745.6438263330001,745.6438263330001,745.6438263330001,745.6438263330001,745.6438263330001,746.6411546660001,746.6411546660001,z,1,0.43856466699980956,None,1,001,2023-10-14_20h03.11.899,Sequence_Learning,2023.1.3,None,
50,c,0,0,0,0,,,,,27,3,111,2,747.0905835409999,748.078467416,748.078467416,748.078467416,748.078467416,748.0878079580002,749.0745029580003,749.0745029580003,c,1,0.4271130839997568,None,1,001,2023-10-14_20h03.11.899,Sequence_Learning,2023.1.3,None,
-50,x,0,0,0,0,,,,,28,0,112,0,749.5164259580001,750.5166722080003,750.5166722080003,750.5166722080003,750.5166722080003,750.5337989160003,751.5078994159999,751.5078994159999,x,1,0.8085539590001645,None,1,001,2023-10-14_20h03.11.899,Sequence_Learning,2023.1.3,None,
50,c,0,0,0,0,,,,,28,1,113,2,752.3242814999999,753.312132083,753.312132083,753.312132083,753.312132083,753.321479791,754.3165169160002,754.3165169160002,c,1,0.45974570899988976,None,1,001,2023-10-14_20h03.11.899,Sequence_Learning,2023.1.3,None,
150,v,0,0,0,0,,,,,28,2,114,1,754.7913398750002,755.7781131659999,755.7781131659999,755.7781131659999,755.7781131659999,755.7869070000002,756.7833730830002,756.7833730830002,v,1,0.47040324999989025,None,1,001,2023-10-14_20h03.11.899,Sequence_Learning,2023.1.3,None,
50,c,0,0,0,0,,,,,28,3,115,2,757.2661429160003,758.2669316249999,758.2669316249999,758.2669316249999,758.2669316249999,758.2840671250001,759.2582860000002,759.2582860000002,c,1,0.5539575839998179,None,1,001,2023-10-14_20h03.11.899,Sequence_Learning,2023.1.3,None,
-50,x,0,0,0,0,,,,,29,0,116,0,759.824335708,760.812029791,760.812029791,760.812029791,760.812029791,760.821559083,761.816711083,761.816711083,x,1,0.4259019169999192,None,1,001,2023-10-14_20h03.11.899,Sequence_Learning,2023.1.3,None,
-150,z,0,0,0,0,,,,,29,1,117,3,762.258218291,763.2453230000001,763.2453230000001,763.2453230000001,763.2453230000001,763.254525583,764.2501219999999,764.2501219999999,z,1,0.48545700000022407,None,1,001,2023-10-14_20h03.11.899,Sequence_Learning,2023.1.3,None,
150,v,0,0,0,0,,,,,29,2,118,1,764.7502237080002,765.7439733330002,765.7439733330002,765.7439733330002,765.7439733330002,765.7439733330002,766.7416587910002,766.7416587910002,v,1,0.3944188759996905,None,1,001,2023-10-14_20h03.11.899,Sequence_Learning,2023.1.3,None,
150,v,0,0,0,0,,,,,29,3,119,1,767.1502725,768.1346854580001,768.1346854580001,768.1346854580001,768.1346854580001,768.1442541249999,769.1336149580002,769.1336149580002,v,1,0.595565833999899,None,1,001,2023-10-14_20h03.11.899,Sequence_Learning,2023.1.3,None,
50,c,0,0,0,0,,,,,30,0,120,2,769.7418917079999,770.7286100830001,770.7286100830001,770.7286100830001,770.7286100830001,770.7379705409999,771.7336530000002,771.7336530000002,c,1,0.4424343749997206,None,1,001,2023-10-14_20h03.11.899,Sequence_Learning,2023.1.3,None,
150,v,0,0,0,0,,,,,30,1,121,1,772.1913315410002,773.1788780830002,773.1788780830002,773.1788780830002,773.1788780830002,773.1878057910003,774.183197625,774.183197625,v,1,0.567401375999907,None,1,001,2023-10-14_20h03.11.899,Sequence_Learning,2023.1.3,None,
50,c,0,0,0,0,,,,,30,2,122,2,774.7579985000002,775.7507030830002,775.7507030830002,775.7507030830002,775.7507030830002,775.7603126250001,776.7506234580001,776.7506234580001,c,1,0.4063730419998137,None,1,001,2023-10-14_20h03.11.899,Sequence_Learning,2023.1.3,None,
-50,x,0,0,0,0,,,,,30,3,123,0,777.1673410000003,778.1613412910001,778.1613412910001,778.1613412910001,778.1613412910001,778.1613412910001,779.1505575830001,779.1505575830001,x,1,0.4199366259999806,None,1,001,2023-10-14_20h03.11.899,Sequence_Learning,2023.1.3,None,
-150,z,0,0,0,0,,,,,31,0,124,3,779.5839684160001,780.5697062909999,780.5697062909999,780.5697062909999,780.5697062909999,780.5845545830002,781.5672294999999,781.5672294999999,z,1,0.7808681249998699,None,1,001,2023-10-14_20h03.11.899,Sequence_Learning,2023.1.3,None,
150,v,0,0,0,0,,,,,31,1,125,1,782.3582517909999,783.3455187079999,783.3455187079999,783.3455187079999,783.3455187079999,783.35459425,784.3419546250002,784.3419546250002,v,1,0.39336491699987164,None,1,001,2023-10-14_20h03.11.899,Sequence_Learning,2023.1.3,None,
-50,x,0,0,0,0,,,,,31,2,126,0,784.750804458,785.7508653750001,785.7508653750001,785.7508653750001,785.7508653750001,785.7681066660002,786.7340775410003,786.7340775410003,z,0,0.4114303339997605,None,1,001,2023-10-14_20h03.11.899,Sequence_Learning,2023.1.3,None,
50,c,0,0,0,0,,,,,31,3,127,2,787.1590881249999,788.1516489159999,788.1516489159999,788.1516489159999,788.1516489159999,788.1620061660001,789.1508966659999,789.1508966659999,c,1,0.6874587500001326,None,1,001,2023-10-14_20h03.11.899,Sequence_Learning,2023.1.3,None,
50,c,0,0,0,0,,,,,32,0,128,2,789.850798166,790.8351846250002,790.8351846250002,790.8351846250002,790.8351846250002,790.8449762079999,791.8342251250001,791.8342251250001,c,1,0.6134795419998227,None,1,001,2023-10-14_20h03.11.899,Sequence_Learning,2023.1.3,None,
-50,x,0,0,0,0,,,,,32,1,129,0,792.4583213330002,793.4458191250001,793.4458191250001,793.4458191250001,793.4458191250001,793.4549569579999,794.4510171659999,794.4510171659999,x,1,0.4015467090002858,None,1,001,2023-10-14_20h03.11.899,Sequence_Learning,2023.1.3,None,
-150,z,0,0,0,0,,,,,32,2,130,3,794.86757575,795.8678642909999,795.8678642909999,795.8678642909999,795.8678642909999,795.884971291,796.8510620000002,796.8510620000002,z,1,0.5337410009997257,None,1,001,2023-10-14_20h03.11.899,Sequence_Learning,2023.1.3,None,
150,v,0,0,0,0,,,,,32,3,131,1,797.4009876250002,798.3947674159999,798.3947674159999,798.3947674159999,798.3947674159999,798.3947674159999,799.3929642080002,799.3929642080002,v,1,0.41964145800011465,None,1,001,2023-10-14_20h03.11.899,Sequence_Learning,2023.1.3,None,
-150,z,0,0,0,0,,,,,33,0,132,3,799.8257524999999,800.8126807910003,800.8126807910003,800.8126807910003,800.8126807910003,800.8216042909999,801.8177652909999,801.8177652909999,z,1,0.4941981259999011,None,1,001,2023-10-14_20h03.11.899,Sequence_Learning,2023.1.3,None,
-50,x,0,0,0,0,,,,,33,1,133,0,802.3251532499999,803.3135415000002,803.3135415000002,803.3135415000002,803.3135415000002,803.3225357910001,804.3091990410003,804.3091990410003,x,1,0.6008722920000764,None,1,001,2023-10-14_20h03.11.899,Sequence_Learning,2023.1.3,None,
150,v,0,0,0,0,,,,,33,2,134,1,804.9256124160001,805.9129043329999,805.9129043329999,805.9129043329999,805.9129043329999,805.9219841250001,806.9180308330001,806.9180308330001,v,1,0.5606449169999905,None,1,001,2023-10-14_20h03.11.899,Sequence_Learning,2023.1.3,None,
-150,z,0,0,0,0,,,,,33,3,135,3,807.4930438330002,808.4857253330001,808.4857253330001,808.4857253330001,808.4857253330001,808.4955479999999,809.484749833,809.484749833,z,1,0.4716845419998208,None,1,001,2023-10-14_20h03.11.899,Sequence_Learning,2023.1.3,None,
-150,z,0,0,0,0,,,,,34,0,136,3,809.9679770830003,810.9617803750002,810.9617803750002,810.9617803750002,810.9617803750002,810.9617803750002,811.959392666,811.959392666,z,1,0.47675300099990636,None,1,001,2023-10-14_20h03.11.899,Sequence_Learning,2023.1.3,None,
-50,x,0,0,0,0,,,,,34,1,137,0,812.4514582080001,813.4450818330001,813.4450818330001,813.4450818330001,813.4450818330001,813.4450818330001,814.4433251660002,814.4433251660002,x,1,0.7249281249996784,None,1,001,2023-10-14_20h03.11.899,Sequence_Learning,2023.1.3,None,
-50,x,0,0,0,0,,,,,34,2,138,0,815.176810125,816.1644119160001,816.1644119160001,816.1644119160001,816.1644119160001,816.1737376660003,817.1682178750002,817.1682178750002,x,1,0.6140452499998901,None,1,001,2023-10-14_20h03.11.899,Sequence_Learning,2023.1.3,None,
-50,x,0,0,0,0,,,,,34,3,139,0,817.792372333,818.7801330410002,818.7801330410002,818.7801330410002,818.7801330410002,818.788998083,819.7850028749999,819.7850028749999,x,1,0.5546582500001023,None,1,001,2023-10-14_20h03.11.899,Sequence_Learning,2023.1.3,None,
-50,x,0,0,0,0,,,,,35,0,140,0,820.3510969580002,821.3460304160003,821.3460304160003,821.3460304160003,821.3460304160003,821.3460304160003,822.3434859580002,822.3434859580002,x,1,0.40099420799970176,None,1,001,2023-10-14_20h03.11.899,Sequence_Learning,2023.1.3,None,
-50,x,0,0,0,0,,,,,35,1,141,0,822.7593066660002,823.7470961660001,823.7470961660001,823.7470961660001,823.7470961660001,823.7565761660003,824.7510217080003,824.7510217080003,x,1,0.4176335829997697,None,1,001,2023-10-14_20h03.11.899,Sequence_Learning,2023.1.3,None,
-150,z,0,0,0,0,,,,,35,2,142,3,825.18503375,826.1796461660001,826.1796461660001,826.1796461660001,826.1796461660001,826.1796461660001,827.1765167500002,827.1765167500002,z,1,0.6090144169997984,None,1,001,2023-10-14_20h03.11.899,Sequence_Learning,2023.1.3,None,
-150,z,0,0,0,0,,,,,35,3,143,3,827.8017682499999,828.796389958,828.796389958,828.796389958,828.796389958,828.796389958,829.7937766660002,829.7937766660002,z,1,0.6508254169998509,None,1,001,2023-10-14_20h03.11.899,Sequence_Learning,2023.1.3,None,
150,v,0,0,0,0,,,,,36,0,144,1,830.460175875,831.4529761660001,831.4529761660001,831.4529761660001,831.4529761660001,831.4627076249999,832.4519392080001,832.4519392080001,v,1,0.5679415419999714,None,1,001,2023-10-14_20h03.11.899,Sequence_Learning,2023.1.3,None,
150,v,0,0,0,0,,,,,36,1,145,1,833.0353210829999,834.0355050829999,834.0355050829999,834.0355050829999,834.0355050829999,834.0526714580001,835.0187421250002,835.0187421250002,v,1,0.48324191699975927,None,1,001,2023-10-14_20h03.11.899,Sequence_Learning,2023.1.3,None,
150,v,0,0,0,0,,,,,36,2,146,1,835.509514583,836.4968630000003,836.4968630000003,836.4968630000003,836.4968630000003,836.5057715830003,837.502091583,837.502091583,v,1,0.47634283399975175,None,1,001,2023-10-14_20h03.11.899,Sequence_Learning,2023.1.3,None,
150,v,0,0,0,0,,,,,36,3,147,1,837.9928991249999,838.9804405,838.9804405,838.9804405,838.9804405,838.9894867080002,839.9768762500003,839.9768762500003,v,1,0.41728104200001326,None,1,001,2023-10-14_20h03.11.899,Sequence_Learning,2023.1.3,None,
-50,x,0,0,0,0,,,,,37,0,148,0,840.4102870830002,841.3970308329999,841.3970308329999,841.3970308329999,841.3970308329999,841.4059563750002,842.394003458,842.394003458,x,1,0.5761462079999546,None,1,001,2023-10-14_20h03.11.899,Sequence_Learning,2023.1.3,None,
50,c,0,0,0,0,,,,,37,1,149,2,842.9856246660001,843.985837666,843.985837666,843.985837666,843.985837666,844.0029327500001,844.9769222499999,844.9769222499999,c,1,0.4061761250000018,None,1,001,2023-10-14_20h03.11.899,Sequence_Learning,2023.1.3,None,
50,c,0,0,0,0,,,,,37,2,150,2,845.3938373750002,846.3800165000002,846.3800165000002,846.3800165000002,846.3800165000002,846.3889038749999,847.3856257910002,847.3856257910002,c,1,0.40297866699984297,None,1,001,2023-10-14_20h03.11.899,Sequence_Learning,2023.1.3,None,
-150,z,0,0,0,0,,,,,37,3,151,3,847.802406666,848.786780208,848.786780208,848.786780208,848.786780208,848.7966015000002,849.7856900830002,849.7856900830002,z,1,0.4669510009998703,None,1,001,2023-10-14_20h03.11.899,Sequence_Learning,2023.1.3,None,
50,c,0,0,0,0,,,,,38,0,152,2,850.2690116250001,851.2623094579999,851.2623094579999,851.2623094579999,851.2623094579999,851.2623094579999,852.2605986660001,852.2605986660001,c,1,0.6844495000000279,None,1,001,2023-10-14_20h03.11.899,Sequence_Learning,2023.1.3,None,
-50,x,0,0,0,0,,,,,38,1,153,0,852.9600336660001,853.9481512910002,853.9481512910002,853.9481512910002,853.9481512910002,853.957642375,854.952559333,854.952559333,x,1,0.39498366699990584,None,1,001,2023-10-14_20h03.11.899,Sequence_Learning,2023.1.3,None,
-50,x,0,0,0,0,,,,,38,2,154,0,855.3603867910001,856.3471597080002,856.3471597080002,856.3471597080002,856.3471597080002,856.3560326249999,857.352606291,857.352606291,x,1,0.42558908399996653,None,1,001,2023-10-14_20h03.11.899,Sequence_Learning,2023.1.3,None,
-150,z,0,0,0,0,,,,,38,3,155,3,857.7941982910002,858.7807763330002,858.7807763330002,858.7807763330002,858.7807763330002,858.7897335410003,859.7860126250002,859.7860126250002,z,1,0.48627687499993044,None,1,001,2023-10-14_20h03.11.899,Sequence_Learning,2023.1.3,None,
-50,x,0,0,0,0,,,,,39,0,156,0,860.286021416,861.270331791,861.270331791,861.270331791,861.270331791,861.2798447499999,862.269375333,862.269375333,x,1,0.41277279199994155,None,1,001,2023-10-14_20h03.11.899,Sequence_Learning,2023.1.3,None,
50,c,0,0,0,0,,,,,39,1,157,2,862.6940735000003,863.681316958,863.681316958,863.681316958,863.681316958,863.690690416,864.6860782080003,864.6860782080003,c,1,0.6179280420001305,None,1,001,2023-10-14_20h03.11.899,Sequence_Learning,2023.1.3,None,
-150,z,0,0,0,0,,,,,39,2,158,3,865.3195685410001,866.3050965410002,866.3050965410002,866.3050965410002,866.3050965410002,866.3202735,867.3029538330002,867.3029538330002,z,1,0.4919482089999292,None,1,001,2023-10-14_20h03.11.899,Sequence_Learning,2023.1.3,None,
50,c,0,0,0,0,,,,,39,3,159,2,867.8103510000001,868.7984385,868.7984385,868.7984385,868.7984385,868.8082064999999,869.8029820000002,869.8029820000002,c,1,0.5543860419998055,None,1,001,2023-10-14_20h03.11.899,Sequence_Learning,2023.1.3,None,
-50,x,0,0,0,0,,,,,40,0,160,0,870.369564916,871.3549767079999,871.3549767079999,871.3549767079999,871.3549767079999,871.3700062500002,872.3530600409999,872.3530600409999,x,1,0.42564391699988846,None,1,001,2023-10-14_20h03.11.899,Sequence_Learning,2023.1.3,None,
-150,z,0,0,0,0,,,,,40,1,161,3,872.7943733330003,873.7811362500001,873.7811362500001,873.7811362500001,873.7811362500001,873.7899575410001,874.7865206659999,874.7865206659999,z,1,0.6166536669998095,None,1,001,2023-10-14_20h03.11.899,Sequence_Learning,2023.1.3,None,
-150,z,0,0,0,0,,,,,40,2,162,3,875.4116800830002,876.3975677910003,876.3975677910003,876.3975677910003,876.3975677910003,876.4064955409999,877.40311475,877.40311475,z,1,0.5258946259996264,None,1,001,2023-10-14_20h03.11.899,Sequence_Learning,2023.1.3,None,
50,c,0,0,0,0,,,,,40,3,163,2,877.9441608750003,878.9318243329999,878.9318243329999,878.9318243329999,878.9318243329999,878.9409246660002,879.9365102500001,879.9365102500001,c,1,0.599851542000124,None,1,001,2023-10-14_20h03.11.899,Sequence_Learning,2023.1.3,None,
150,v,0,0,0,0,,,,,41,0,164,1,880.5452061660003,881.5314853330001,881.5314853330001,881.5314853330001,881.5314853330001,881.5408950410001,882.5366088750002,882.5366088750002,v,1,0.4623079170000892,None,1,001,2023-10-14_20h03.11.899,Sequence_Learning,2023.1.3,None,
50,c,0,0,0,0,,,,,41,1,165,2,883.011718875,883.9986739159999,883.9986739159999,883.9986739159999,883.9986739159999,884.0077336660001,885.0032933329999,885.0032933329999,c,1,0.5722850840002138,None,1,001,2023-10-14_20h03.11.899,Sequence_Learning,2023.1.3,None,
-50,x,0,0,0,0,,,,,41,2,166,0,885.5866541250002,886.586899375,886.586899375,886.586899375,886.586899375,886.6039879580003,887.5699906660002,887.5699906660002,x,1,0.5944838330001403,None,1,001,2023-10-14_20h03.11.899,Sequence_Learning,2023.1.3,None,
150,v,0,0,0,0,,,,,41,3,167,1,888.1780668330002,889.1654932910001,889.1654932910001,889.1654932910001,889.1654932910001,889.1745818750001,890.1701010000002,890.1701010000002,v,1,0.4689148750003369,None,1,001,2023-10-14_20h03.11.899,Sequence_Learning,2023.1.3,None,
-150,z,0,0,0,0,,,,,42,0,168,3,890.6534945409999,891.6536968750002,891.6536968750002,891.6536968750002,891.6536968750002,891.6708187909999,892.6448112910002,892.6448112910002,z,1,0.4094237509998493,None,1,001,2023-10-14_20h03.11.899,Sequence_Learning,2023.1.3,None,
-50,x,0,0,0,0,,,,,42,1,169,0,893.070148625,894.0547244580002,894.0547244580002,894.0547244580002,894.0547244580002,894.064521583,895.0616279159999,895.0616279159999,x,1,0.3655301670000881,None,1,001,2023-10-14_20h03.11.899,Sequence_Learning,2023.1.3,None,
-150,z,0,0,0,0,,,,,42,2,170,3,895.4435388330003,896.4312552910001,896.4312552910001,896.4312552910001,896.4312552910001,896.4400571659999,897.4369907079999,897.4369907079999,z,1,0.5680312089998552,None,1,001,2023-10-14_20h03.11.899,Sequence_Learning,2023.1.3,None,
50,c,0,0,0,0,,,,,42,3,171,2,898.0202586250002,899.020501083,899.020501083,899.020501083,899.020501083,899.0376542910003,900.003680625,900.003680625,c,1,0.3856215840000914,None,1,001,2023-10-14_20h03.11.899,Sequence_Learning,2023.1.3,None,
50,c,0,0,0,0,,,,,43,0,172,2,900.4038188750001,901.3972225830003,901.3972225830003,901.3972225830003,901.3972225830003,901.3972225830003,902.3951682500001,902.3951682500001,c,1,0.5857356670003355,None,1,001,2023-10-14_20h03.11.899,Sequence_Learning,2023.1.3,None,
150,v,0,0,0,0,,,,,43,1,173,1,902.9949165410003,903.9819742079999,903.9819742079999,903.9819742079999,903.9819742079999,903.9909090410001,904.987151416,904.987151416,v,1,0.47593141700008346,None,1,001,2023-10-14_20h03.11.899,Sequence_Learning,2023.1.3,None,
50,c,0,0,0,0,,,,,43,2,174,2,905.478563958,906.4656836250001,906.4656836250001,906.4656836250001,906.4656836250001,906.475352125,907.4621726250002,907.4621726250002,c,1,0.5763265829996271,None,1,001,2023-10-14_20h03.11.899,Sequence_Learning,2023.1.3,None,
150,v,0,0,0,0,,,,,43,3,175,1,908.0538916250002,909.0540586249999,909.0540586249999,909.0540586249999,909.0540586249999,909.0712237080002,910.0450369580003,910.0450369580003,v,1,0.48407233400030236,None,1,001,2023-10-14_20h03.11.899,Sequence_Learning,2023.1.3,None,
-150,z,0,0,0,0,,,,,44,0,176,3,910.545393458,911.5328857909999,911.5328857909999,911.5328857909999,911.5328857909999,911.5420667500002,912.537382166,912.537382166,z,1,0.4481168330003129,None,1,001,2023-10-14_20h03.11.899,Sequence_Learning,2023.1.3,None,
-150,z,0,0,0,0,,,,,44,1,177,3,912.9949952500001,913.9826508330002,913.9826508330002,913.9826508330002,913.9826508330002,913.9920587080001,914.9873884160002,914.9873884160002,z,1,0.5229685839999547,None,1,001,2023-10-14_20h03.11.899,Sequence_Learning,2023.1.3,None,
-150,z,0,0,0,0,,,,,44,2,178,3,915.5207862910001,916.515064875,916.515064875,916.515064875,916.515064875,916.515064875,917.5041779580001,917.5041779580001,z,1,0.4835552509998706,None,1,001,2023-10-14_20h03.11.899,Sequence_Learning,2023.1.3,None,
-150,z,0,0,0,0,,,,,44,3,179,3,918.0041660410002,918.998495625,918.998495625,918.998495625,918.998495625,918.998495625,919.9956259159999,919.9956259159999,z,1,0.49562562599976445,None,1,001,2023-10-14_20h03.11.899,Sequence_Learning,2023.1.3,None,
-50,x,0,0,0,0,,,,,45,0,180,0,920.5042145830002,921.504553583,921.504553583,921.504553583,921.504553583,921.5215666660001,922.4876060000001,922.4876060000001,x,1,0.5031445839995285,None,1,001,2023-10-14_20h03.11.899,Sequence_Learning,2023.1.3,None,
-150,z,0,0,0,0,,,,,45,1,181,3,923.0042745410001,923.988468041,923.988468041,923.988468041,923.988468041,923.998289958,924.9876908330002,924.9876908330002,z,1,0.56422587499992,None,1,001,2023-10-14_20h03.11.899,Sequence_Learning,2023.1.3,None,
